"subject","trial","dots_left","dots_right","correct","rt","confidence"
1,1,50,70,FALSE,3312,3
1,2,50,72,FALSE,1701,4
1,3,50,74,FALSE,1588,4
1,4,50,76,TRUE,1086,2
1,5,50,76,FALSE,1706,2
1,6,50,78,TRUE,980,6
1,7,50,78,TRUE,1497,5
1,8,76,50,TRUE,962,6
1,9,76,50,TRUE,965,4
1,10,50,74,TRUE,874,5
1,11,74,50,TRUE,1418,4
1,12,72,50,TRUE,1045,6
1,13,50,72,TRUE,1193,4
1,14,50,70,TRUE,1441,3
1,15,50,70,FALSE,1115,2
1,16,72,50,TRUE,951,6
1,17,72,50,TRUE,969,6
1,18,50,70,TRUE,1895,3
1,19,70,50,TRUE,821,6
1,20,68,50,TRUE,958,6
1,21,68,50,FALSE,1393,2
1,22,50,70,TRUE,1936,3
1,23,70,50,TRUE,957,5
1,24,50,68,TRUE,2216,2
1,25,68,50,TRUE,878,5
1,26,66,50,TRUE,1467,5
1,27,66,50,TRUE,951,6
1,28,64,50,TRUE,942,3
1,29,50,64,TRUE,2131,2
1,30,62,50,TRUE,1191,2
1,31,62,50,TRUE,935,3
1,32,50,60,TRUE,1756,2
1,33,60,50,TRUE,981,4
1,34,50,58,TRUE,1267,3
1,35,58,50,TRUE,914,2
1,36,50,56,TRUE,900,4
1,37,50,56,FALSE,2028,2
1,38,50,58,TRUE,931,3
1,39,50,58,FALSE,2039,2
1,40,50,60,FALSE,1617,2
1,41,62,50,TRUE,1389,4
1,42,50,62,TRUE,1028,2
1,43,60,50,FALSE,3286,1
1,44,50,62,FALSE,1487,1
1,45,64,50,TRUE,924,4
1,46,50,64,TRUE,1140,3
1,47,50,62,TRUE,2734,4
1,48,62,50,TRUE,793,5
1,49,50,60,TRUE,784,4
1,50,50,60,TRUE,4056,1
1,51,50,58,TRUE,895,3
1,52,58,50,TRUE,1603,2
1,53,50,56,TRUE,979,3
1,54,50,56,TRUE,912,4
1,55,54,50,TRUE,922,4
1,56,50,54,FALSE,3158,2
1,57,50,56,TRUE,1182,3
1,58,56,50,TRUE,821,5
1,59,54,50,TRUE,14058,1
1,60,54,50,TRUE,803,5
1,61,50,52,FALSE,1288,4
1,62,54,50,FALSE,1065,5
1,63,50,56,FALSE,1210,5
1,64,50,58,TRUE,1022,3
1,65,50,58,FALSE,855,3
1,66,50,60,TRUE,1044,4
1,67,60,50,TRUE,1093,6
1,68,50,58,FALSE,2215,4
1,69,60,50,TRUE,1095,1
1,70,50,60,TRUE,1078,1
1,71,50,58,TRUE,1379,5
1,72,58,50,TRUE,915,4
1,73,56,50,TRUE,857,4
1,74,56,50,FALSE,885,4
1,75,58,50,FALSE,3477,3
1,76,60,50,TRUE,1335,5
1,77,50,60,TRUE,1138,5
1,78,58,50,TRUE,838,3
1,79,58,50,FALSE,887,5
1,80,50,60,TRUE,1397,1
1,81,60,50,TRUE,605,1
1,82,58,50,FALSE,1052,3
1,83,60,50,TRUE,972,3
1,84,50,60,FALSE,3284,2
1,85,50,62,TRUE,1004,4
1,86,62,50,TRUE,655,6
1,87,50,60,TRUE,817,6
1,88,60,50,TRUE,999,6
1,89,58,50,TRUE,1688,5
1,90,58,50,FALSE,1863,3
1,91,50,60,FALSE,823,5
1,92,62,50,FALSE,1269,5
1,93,64,50,TRUE,1211,5
1,94,64,50,TRUE,957,3
1,95,62,50,TRUE,936,2
1,96,50,62,TRUE,925,2
1,97,50,60,TRUE,1125,4
1,98,60,50,TRUE,2545,4
1,99,58,50,TRUE,878,5
1,100,50,58,TRUE,772,5
1,101,56,50,TRUE,884,5
1,102,56,50,TRUE,1050,6
1,103,50,54,TRUE,900,1
1,104,54,50,TRUE,901,2
1,105,50,52,TRUE,2194,4
1,106,50,52,TRUE,823,4
1,107,52,50,TRUE,1005,2
1,108,50,52,FALSE,840,5
1,109,50,54,TRUE,775,2
1,110,54,50,TRUE,833,4
1,111,52,50,TRUE,2649,2
1,112,52,50,TRUE,941,2
1,113,52,50,TRUE,3898,1
1,114,50,52,FALSE,1403,2
1,115,50,54,FALSE,1721,2
1,116,56,50,TRUE,998,4
1,117,56,50,FALSE,993,2
1,118,50,58,TRUE,1010,2
1,119,58,50,TRUE,731,4
1,120,56,50,TRUE,1094,3
2,1,70,50,TRUE,1972.67499999907,3
2,2,70,50,TRUE,4161.86999999991,2
2,3,50,68,TRUE,1394.74500000142,5
2,4,50,68,TRUE,1254.29999999869,6
2,5,66,50,FALSE,1374.39000000086,5
2,6,68,50,TRUE,3154.61499999947,4
2,7,68,50,TRUE,1625.47500000073,4
2,8,66,50,TRUE,1155.22000000055,4
2,9,66,50,FALSE,1361.41999999927,3
2,10,50,68,TRUE,1070.54999999855,6
2,11,68,50,TRUE,1304.7549999992,5
2,12,50,66,TRUE,1041.74499999863,5
2,13,66,50,TRUE,1038.26499999923,4
2,14,50,64,TRUE,912.829999999303,4
2,15,50,64,TRUE,991.079999999783,6
2,16,62,50,TRUE,1176.11500000021,3
2,17,50,62,TRUE,915.635000001203,6
2,18,50,60,TRUE,973.574999999983,6
2,19,50,60,TRUE,1275.51999999923,3
2,20,50,58,TRUE,876.130000000558,5
2,21,50,58,TRUE,896.41500000107,4
2,22,56,50,FALSE,1329.60500000081,2
2,23,50,58,TRUE,1120.49499999921,5
2,24,58,50,FALSE,2018.98999999867,1
2,25,60,50,TRUE,1998.46499999876,2
2,26,50,60,TRUE,949.32499999959,5
2,27,58,50,TRUE,1978.5950000005,3
2,28,58,50,TRUE,1103.14500000095,3
2,29,50,56,TRUE,639.460000000327,3
2,30,56,50,FALSE,1488.53000000054,3
2,31,58,50,TRUE,1767.065,2
2,32,50,58,TRUE,1045.06000000038,3
2,33,50,56,TRUE,1163.91000000112,3
2,34,56,50,TRUE,1190.04499999937,3
2,35,50,54,TRUE,723.995000000286,3
2,36,50,54,TRUE,1071.00499999979,3
2,37,50,52,FALSE,1057.12499999936,3
2,38,54,50,FALSE,1286.7499999993,5
2,39,56,50,TRUE,1064.00500000018,5
2,40,56,50,TRUE,1115.75500000072,4
2,41,54,50,FALSE,965.01999999964,4
2,42,56,50,TRUE,1415.71000000111,1
2,43,50,56,TRUE,1042.3950000004,5
2,44,54,50,FALSE,2728.74500000034,1
2,45,56,50,TRUE,1023.1100000001,1
2,46,50,56,TRUE,987.134999999398,6
2,47,54,50,FALSE,1268.3649999999,4
2,48,50,56,TRUE,870.090000000317,6
2,49,56,50,FALSE,1990.74999999901,2
2,50,58,50,TRUE,964.765000000625,6
2,51,58,50,TRUE,2544.31499999919,3
2,52,50,56,TRUE,1156.86000000095,4
2,53,50,56,TRUE,1050.99499999959,4
2,54,50,54,TRUE,1017.89499999903,6
2,55,50,54,TRUE,1056.16499999995,4
2,56,52,50,TRUE,1033.12000000005,5
2,57,52,50,FALSE,1565.9450000003,1
2,58,54,50,FALSE,866.955000001326,3
2,59,56,50,TRUE,928.509999999718,3
2,60,56,50,TRUE,2091.63999999873,4
2,61,50,54,TRUE,916.80500000075,4
2,62,54,50,TRUE,964.340000000433,4
2,63,50,52,FALSE,2761.5650000007,2
2,64,54,50,FALSE,909.814999999071,3
2,65,56,50,TRUE,723.185000000754,2
2,66,56,50,FALSE,1332.88999999966,3
2,67,50,58,TRUE,963.864999999729,6
2,68,50,58,TRUE,653.715000000375,6
2,69,56,50,FALSE,2602.39499999987,3
2,70,58,50,TRUE,1102.79000000079,3
2,71,50,58,TRUE,845.095000000583,6
2,72,56,50,TRUE,1067.40999999965,6
2,73,50,56,TRUE,996.170000000362,6
2,74,50,54,TRUE,2393.89500000107,3
2,75,50,54,TRUE,1220.11500000011,3
2,76,50,52,TRUE,1569.76500000019,3
2,77,52,50,FALSE,1102.80500000043,3
2,78,50,54,TRUE,923.714999999007,5
2,79,50,54,TRUE,1358.92500000045,5
2,80,50,52,TRUE,2643.49500000026,1
2,81,50,52,TRUE,1142.16500000114,3
2,82,50,52,TRUE,932.385000000068,5
2,83,50,52,TRUE,915.884999998525,5
2,84,52,50,FALSE,3401.96999999898,3
2,85,54,50,FALSE,1295.92000000045,3
2,86,50,56,TRUE,3932.84999999922,1
2,87,50,56,TRUE,1808.79499999899,3
2,88,54,50,FALSE,1134.65999999974,2
2,89,56,50,FALSE,1379.6600000005,2
2,90,58,50,FALSE,2923.24999999983,2
2,91,50,60,TRUE,1307.72500000056,2
2,92,60,50,TRUE,1008.385000001,5
2,93,58,50,TRUE,1572.5849999999,3
2,94,58,50,TRUE,1060.06499999965,3
2,95,56,50,TRUE,1186.31500000082,3
2,96,56,50,TRUE,1051.7949999994,3
2,97,50,54,TRUE,1069.99499999982,3
2,98,50,54,TRUE,1842.37500000023,3
2,99,52,50,FALSE,1101.88000000018,4
2,100,54,50,TRUE,1164.15499999857,2
2,101,50,54,TRUE,1823.06500000053,1
2,102,52,50,FALSE,1658.09999999875,2
2,103,54,50,TRUE,1086.47500000009,4
2,104,50,54,TRUE,1088.07499999966,4
2,105,50,52,TRUE,1268.36000000004,3
2,106,52,50,TRUE,1028.32499999931,5
2,107,52,50,TRUE,964.75000000099,3
2,108,52,50,FALSE,2028.80999999982,1
2,109,50,54,FALSE,1483.93499999837,2
2,110,50,56,FALSE,1114.89000000071,1
2,111,58,50,FALSE,2860.59000000026,2
2,112,50,60,TRUE,943.390000000363,5
2,113,60,50,TRUE,926.250000000407,6
2,114,50,58,TRUE,908.209999999614,6
2,115,58,50,TRUE,893.834999998973,6
2,116,56,50,TRUE,974.110000001034,6
2,117,56,50,TRUE,1675.90500000009,3
2,118,50,54,TRUE,916.13000000146,6
2,119,54,50,FALSE,2522.05500000127,3
2,120,56,50,TRUE,1017.61499999883,5
3,1,70,50,TRUE,919.480000004114,3
3,2,50,70,FALSE,4857.05999999482,1
3,3,50,72,TRUE,1448.5050000003,5
3,4,50,72,TRUE,974.454999995942,5
3,5,70,50,TRUE,877.889999996114,5
3,6,50,70,TRUE,1324.83499999944,4
3,7,50,68,FALSE,2962.63999999792,2
3,8,70,50,TRUE,1058.27999999747,5
3,9,50,70,TRUE,1116.52000000322,3
3,10,50,68,TRUE,2235.98499999935,4
3,11,50,68,FALSE,2263.22000000073,2
3,12,70,50,TRUE,1137.84499999747,5
3,13,50,70,TRUE,1172.37999999634,4
3,14,68,50,TRUE,1276.20500000194,4
3,15,68,50,TRUE,1047.14499999682,6
3,16,66,50,TRUE,1263.87499999691,6
3,17,66,50,TRUE,2208.6249999993,6
3,18,50,64,TRUE,1797.22500000207,3
3,19,50,64,FALSE,883.390000002692,6
3,20,66,50,TRUE,1464.13500000199,4
3,21,66,50,TRUE,993.479999997362,4
3,22,50,64,TRUE,872.849999999744,5
3,23,64,50,TRUE,767.380000004778,4
3,24,62,50,TRUE,1031.94999999687,5
3,25,62,50,TRUE,942.009999998845,5
3,26,60,50,TRUE,798.009999998612,6
3,27,50,60,TRUE,1353.79000000103,5
3,28,58,50,FALSE,1231.71000000002,4
3,29,50,60,FALSE,1519.70499999879,3
3,30,62,50,TRUE,1046.0099999982,4
3,31,50,62,TRUE,844.714999999269,5
3,32,60,50,TRUE,1046.44499999995,4
3,33,60,50,TRUE,910.134999998263,4
3,34,58,50,TRUE,1745.24499999825,4
3,35,50,58,FALSE,1416.24999999476,3
3,36,50,60,TRUE,4793.86499999964,1
3,37,50,60,TRUE,1096.61499999493,3
3,38,50,58,TRUE,1034.75500000059,3
3,39,50,58,TRUE,714.140000003681,3
3,40,56,50,TRUE,1366.67000000307,3
3,41,56,50,TRUE,1036.46499999741,3
3,42,54,50,FALSE,1102.09000000032,2
3,43,56,50,TRUE,891.320000002452,3
3,44,50,56,FALSE,1145.64000000246,2
3,45,58,50,TRUE,807.660000005853,3
3,46,58,50,TRUE,1001.00499999826,2
3,47,50,56,TRUE,784.935000003316,4
3,48,56,50,TRUE,895.564999998896,5
3,49,50,54,TRUE,1024.42500000325,5
3,50,50,54,TRUE,743.580000002112,5
3,51,52,50,TRUE,1348.16000000137,3
3,52,52,50,FALSE,1042.30499999539,4
3,53,50,54,TRUE,1103.22499999893,4
3,54,50,54,TRUE,1724.95000000345,2
3,55,52,50,TRUE,831.604999999399,3
3,56,52,50,FALSE,860.224999996717,5
3,57,54,50,TRUE,1072.08499999979,6
3,58,50,54,FALSE,2764.26499999798,2
3,59,56,50,TRUE,1130.16000000061,3
3,60,50,56,TRUE,1351.5699999989,3
3,61,50,54,FALSE,1390.22000000114,3
3,62,56,50,TRUE,1121.31500000396,3
3,63,50,56,TRUE,1533.27500000159,5
3,64,50,54,TRUE,951.520000002347,5
3,65,54,50,TRUE,905.789999997069,6
3,66,52,50,TRUE,1815.9300000043,3
3,67,52,50,FALSE,2324.17999999598,1
3,68,50,54,TRUE,694.230000000971,6
3,69,54,50,TRUE,1122.1499999956,4
3,70,50,52,TRUE,869.120000003022,5
3,71,52,50,FALSE,1317.28499999736,5
3,72,54,50,TRUE,4664.96999999799,1
3,73,50,54,TRUE,742.330000000948,3
3,74,50,52,TRUE,1377.77500000084,3
3,75,52,50,TRUE,1530.52499999467,2
3,76,52,50,FALSE,740.470000004279,2
3,77,50,54,TRUE,1468.7200000044,2
3,78,50,54,TRUE,1495.53500000184,3
3,79,50,52,TRUE,873.924999999872,4
3,80,52,50,TRUE,1297.25499999768,4
3,81,52,50,FALSE,1273.7799999959,4
3,82,54,50,TRUE,822.635000004084,4
3,83,50,54,TRUE,1509.19000000431,4
3,84,50,52,TRUE,4039.85000000102,2
3,85,50,52,FALSE,2208.02499999991,3
3,86,54,50,FALSE,2286.41000000061,2
3,87,50,56,TRUE,1348.62499999872,4
3,88,56,50,TRUE,1934.65999999898,3
3,89,50,54,FALSE,1035.40500000236,3
3,90,56,50,FALSE,1071.35500000004,4
3,91,58,50,TRUE,1190.9650000016,4
3,92,58,50,TRUE,1180.0099999964,4
3,93,56,50,FALSE,1021.61500000511,5
3,94,50,58,TRUE,785.044999996899,5
3,95,58,50,TRUE,860.720000004221,5
3,96,50,56,FALSE,2286.67500000302,3
3,97,58,50,TRUE,798.210000000836,5
3,98,50,58,TRUE,938.950000003388,6
3,99,50,56,TRUE,880.539999998291,6
3,100,50,56,TRUE,845.274999999674,6
3,101,54,50,FALSE,2267.63999999821,4
3,102,50,56,TRUE,865.595000002941,6
3,103,56,50,TRUE,1674.70499999763,3
3,104,50,54,TRUE,728.405000001658,6
3,105,54,50,FALSE,7283.68500000215,3
3,106,50,56,TRUE,624.400000000605,4
3,107,50,56,FALSE,1081.86000000569,3
3,108,58,50,FALSE,578.63499999803,3
3,109,60,50,TRUE,1146.15500000218,4
3,110,60,50,TRUE,1558.90000000363,4
3,111,58,50,TRUE,1205.53999999538,5
3,112,58,50,TRUE,1615.04999999306,4
3,113,50,56,TRUE,921.06000000058,4
3,114,56,50,FALSE,1196.52499999938,5
3,115,50,58,TRUE,840.320000002976,5
3,116,50,58,FALSE,1266.8199999971,4
3,117,60,50,TRUE,1171.3299999974,4
3,118,50,60,TRUE,712.514999999257,3
3,119,58,50,TRUE,1199.58999999653,5
3,120,58,50,FALSE,1197.95999999769,4
4,1,70,50,TRUE,2071.59000000684,2
4,2,50,70,TRUE,1411.13999998197,3
4,3,68,50,TRUE,1038.51000004215,5
4,4,50,68,TRUE,1012.04500003951,5
4,5,50,66,TRUE,1150.51000000676,5
4,6,50,66,TRUE,1380.33999997424,4
4,7,50,64,TRUE,1102.78499999549,5
4,8,64,50,TRUE,1602.07000002265,5
4,9,62,50,TRUE,1471.9150000019,5
4,10,62,50,FALSE,2313.89500002842,4
4,11,64,50,TRUE,1136.39500003774,5
4,12,64,50,TRUE,1684.5500000054,3
4,13,50,62,TRUE,1221.99499997078,3
4,14,62,50,TRUE,1424.37500000233,3
4,15,50,60,TRUE,1802.67999996431,4
4,16,50,60,TRUE,1671.39500001213,3
4,17,58,50,TRUE,1145.4800000065,3
4,18,58,50,TRUE,1400.42000001995,3
4,19,56,50,FALSE,922.015000018291,4
4,20,58,50,FALSE,1369.34000003384,3
4,21,50,60,TRUE,1127.48999998439,3
4,22,60,50,TRUE,946.089999983087,3
4,23,58,50,FALSE,990.419999987353,3
4,24,50,60,TRUE,1018.12500000233,3
4,25,50,60,TRUE,1104.86500000115,4
4,26,50,58,TRUE,1008.39999999152,5
4,27,58,50,FALSE,2204.81999998447,3
4,28,60,50,FALSE,986.704999988433,4
4,29,62,50,TRUE,1387.87999999477,3
4,30,62,50,FALSE,1166.11499997089,4
4,31,64,50,TRUE,1203.73500004644,3
4,32,64,50,FALSE,1395.23499994539,3
4,33,66,50,TRUE,1004.21499996446,3
4,34,50,66,TRUE,1705.84000000963,4
4,35,64,50,TRUE,1093.41000003042,3
4,36,50,64,TRUE,914.135000028182,4
4,37,62,50,FALSE,1168.12500002561,3
4,38,50,64,TRUE,1444.65000001946,4
4,39,50,64,TRUE,2278.83999998448,4
4,40,62,50,TRUE,972.055000020191,5
4,41,62,50,FALSE,980.665000039153,4
4,42,50,64,TRUE,1093.67999999085,5
4,43,50,64,TRUE,1323.66500003263,4
4,44,62,50,TRUE,2170.29999999795,3
4,45,62,50,TRUE,1027.67499996116,5
4,46,50,60,TRUE,1019.94500000728,4
4,47,60,50,TRUE,1197.57000001846,3
4,48,58,50,TRUE,2411.54000000097,3
4,49,58,50,TRUE,1131.92000001436,5
4,50,56,50,FALSE,1529.61999998661,3
4,51,58,50,FALSE,1261.53999997769,4
4,52,50,60,TRUE,1059.54499996733,5
4,53,50,60,TRUE,1140.95999998972,4
4,54,50,58,TRUE,871.530000003986,5
4,55,58,50,TRUE,1124.55999996746,3
4,56,56,50,FALSE,891.865000012331,4
4,57,50,58,FALSE,1176.21000000509,3
4,58,60,50,TRUE,1148.98999995785,3
4,59,50,60,TRUE,856.92500002915,5
4,60,50,58,FALSE,2757.65500002308,4
4,61,60,50,TRUE,1301.76499998197,3
4,62,50,60,TRUE,837.96000003349,5
4,63,58,50,TRUE,964.999999967404,4
4,64,58,50,TRUE,967.604999954347,5
4,65,50,56,TRUE,1156.72999998787,4
4,66,50,56,TRUE,846.094999986235,5
4,67,54,50,FALSE,1136.14000001689,4
4,68,56,50,TRUE,1030.78999998979,4
4,69,50,56,TRUE,1027.57500001462,4
4,70,50,54,TRUE,1069.63500002166,4
4,71,50,54,TRUE,950.484999979381,4
4,72,52,50,FALSE,1035.96000000834,4
4,73,54,50,FALSE,1165.40999995777,4
4,74,50,56,TRUE,1277.37000002526,4
4,75,56,50,FALSE,1253.10500001069,4
4,76,50,58,TRUE,1078.29999999376,4
4,77,50,58,TRUE,1330.96499997191,5
4,78,56,50,FALSE,1020.09000000544,4
4,79,58,50,FALSE,1078.17499997327,5
4,80,50,60,TRUE,891.500000027008,5
4,81,50,60,TRUE,858.914999989793,6
4,82,58,50,TRUE,1203.35000002524,4
4,83,58,50,FALSE,997.789999993984,4
4,84,60,50,FALSE,1043.10000000987,5
4,85,50,62,TRUE,851.569999998901,6
4,86,62,50,FALSE,1206.29499998176,6
4,87,64,50,TRUE,884.554999996908,6
4,88,50,64,TRUE,796.035000006668,6
4,89,62,50,TRUE,972.724999999627,6
4,90,50,62,TRUE,852.04500000691,6
4,91,60,50,FALSE,1170.70500005502,5
4,92,50,62,TRUE,856.899999955203,5
4,93,50,62,TRUE,917.214999964926,6
4,94,60,50,TRUE,947.125000006054,5
4,95,50,60,TRUE,771.045000001322,6
4,96,58,50,TRUE,1157.2800000431,4
4,97,50,58,TRUE,794.449999986682,6
4,98,50,56,TRUE,831.669999985024,6
4,99,56,50,FALSE,1268.31499999389,6
4,100,50,58,TRUE,806.63500004448,6
4,101,50,58,TRUE,963.105000031646,6
4,102,50,56,TRUE,766.345000010915,6
4,103,56,50,FALSE,1191.0800000187,4
4,104,50,58,TRUE,938.870000012685,5
4,105,58,50,FALSE,1213.32500001881,4
4,106,60,50,FALSE,962.4199999962,5
4,107,62,50,TRUE,1374.1699999664,4
4,108,62,50,TRUE,947.294999961741,6
4,109,60,50,TRUE,1116.26000003889,4
4,110,60,50,TRUE,1403.83000002475,5
4,111,50,58,TRUE,813.710000016727,6
4,112,50,58,TRUE,766.745000029914,4
4,113,50,56,TRUE,772.385000018403,6
4,114,50,56,TRUE,886.674999957904,6
4,115,54,50,FALSE,895.58999997098,6
4,116,50,56,TRUE,907.385000027716,6
4,117,50,56,TRUE,1158.93500001403,4
4,118,54,50,TRUE,1167.2350000008,4
4,119,54,50,FALSE,839.990000007674,5
4,120,56,50,TRUE,1340.38999996847,4
5,1,70,50,FALSE,4848.9050000062,3
5,2,50,72,TRUE,1528.3999999956,3
5,3,50,72,TRUE,2308.30999999307,4
5,4,70,50,TRUE,2276.03999999701,3
5,5,50,70,TRUE,1432.16000001121,3
5,6,50,68,TRUE,1921.61999999371,3
5,7,68,50,TRUE,1276.67999999539,3
5,8,50,66,TRUE,928.625000000466,3
5,9,66,50,TRUE,1189.54999999551,3
5,10,50,64,TRUE,1159.09499999543,3
5,11,50,64,TRUE,1181.20999999519,3
5,12,62,50,FALSE,3138.32500000717,1
5,13,50,64,TRUE,2502.59499999811,2
5,14,50,64,TRUE,1189.64500000584,2
5,15,62,50,TRUE,1767.03000000271,1
5,16,50,62,TRUE,991.284999996424,2
5,17,60,50,FALSE,1144.9799999973,2
5,18,50,62,FALSE,2713.19500000391,2
5,19,50,64,TRUE,1105.59000000649,4
5,20,64,50,TRUE,2092.38500001084,4
5,21,62,50,TRUE,1236.74999999639,3
5,22,50,62,TRUE,1010.07000000391,5
5,23,50,60,TRUE,2352.28500000085,2
5,24,60,50,FALSE,3446.02499999746,2
5,25,50,62,TRUE,1075.74499999464,3
5,26,50,62,TRUE,1139.04999999795,3
5,27,60,50,FALSE,847.110000002431,3
5,28,50,62,TRUE,2058.99499999941,1
5,29,62,50,TRUE,1175.9699999966,2
5,30,50,60,TRUE,951.600000000326,3
5,31,60,50,TRUE,954.270000001998,4
5,32,50,58,TRUE,1132.28000000527,3
5,33,50,58,TRUE,1315.60499999614,3
5,34,56,50,TRUE,1206.55500001158,4
5,35,50,56,TRUE,1047.65999999654,3
5,36,50,54,TRUE,1158.59500000079,3
5,37,54,50,TRUE,1740.11499999324,2
5,38,52,50,FALSE,1034.06499999983,4
5,39,54,50,FALSE,969.345000004978,4
5,40,56,50,TRUE,1201.36500000081,4
5,41,56,50,TRUE,1269.64500000759,4
5,42,54,50,FALSE,1352.70999999193,2
5,43,50,56,TRUE,1408.02999999141,3
5,44,56,50,TRUE,1062.43499999982,2
5,45,54,50,TRUE,921.75499998848,2
5,46,50,54,TRUE,893.284999998286,3
5,47,52,50,FALSE,1256.32000000041,2
5,48,54,50,TRUE,2408.10000000056,2
5,49,54,50,FALSE,1356.59999999916,2
5,50,56,50,TRUE,1081.58999998705,4
5,51,56,50,TRUE,2382.43500000681,2
5,52,54,50,TRUE,1055.6399999914,3
5,53,50,54,FALSE,1221.0699999996,3
5,54,56,50,TRUE,1236.25000000175,2
5,55,50,56,TRUE,868.040000001201,2
5,56,54,50,TRUE,1005.53999999829,2
5,57,50,54,FALSE,2868.19999999716,1
5,58,50,56,TRUE,1016.14500000142,3
5,59,50,56,FALSE,1050.13000000326,4
5,60,50,58,TRUE,1269.42499999132,3
5,61,58,50,FALSE,1536.35500000382,3
5,62,50,60,TRUE,952.105000003939,3
5,63,60,50,TRUE,840.64500000386,4
5,64,50,58,TRUE,956.105000004754,5
5,65,50,58,TRUE,1496.48500001058,3
5,66,50,56,FALSE,5213.35499999986,2
5,67,58,50,TRUE,1187.33000000066,2
5,68,50,58,TRUE,989.03500000597,3
5,69,50,56,TRUE,1492.48999998963,2
5,70,56,50,TRUE,930.229999998119,2
5,71,50,54,FALSE,1130.25000000198,3
5,72,50,56,TRUE,1031.5649999975,3
5,73,56,50,FALSE,969.445000009728,3
5,74,58,50,TRUE,957.84500001173,3
5,75,58,50,TRUE,1326.4199999976,3
5,76,50,56,TRUE,1134.91500000237,5
5,77,56,50,TRUE,1206.91500000248,3
5,78,54,50,TRUE,1393.64500000374,5
5,79,50,54,FALSE,3650.63000000373,2
5,80,56,50,TRUE,1209.45999999822,3
5,81,56,50,TRUE,1131.81500000064,3
5,82,50,54,TRUE,1039.43000000436,3
5,83,50,54,TRUE,1336.175000004,3
5,84,52,50,TRUE,1719.15499999886,2
5,85,52,50,TRUE,1755.17499999842,2
5,86,50,52,TRUE,1058.3900000056,3
5,87,52,50,FALSE,1082.55500000087,3
5,88,50,54,TRUE,3875.61000000278,3
5,89,50,54,FALSE,1487.76499999803,2
5,90,50,56,TRUE,1283.64999999758,3
5,91,50,56,TRUE,1557.22499999683,2
5,92,54,50,TRUE,1227.61499999615,2
5,93,54,50,TRUE,1318.35499999579,1
5,94,52,50,TRUE,1311.39999999141,1
5,95,52,50,TRUE,1320.24499999534,1
5,96,50,52,TRUE,1128.84499999927,2
5,97,52,50,FALSE,1440.65499999851,2
5,98,50,54,TRUE,1043.82500000065,2
5,99,50,54,TRUE,888.014999989537,2
5,100,50,52,TRUE,1116.41000000236,2
5,101,52,50,FALSE,1000.03999999899,3
5,102,50,54,TRUE,1120.35000001197,2
5,103,54,50,FALSE,1234.85500000243,2
5,104,56,50,FALSE,3070.13500000176,1
5,105,50,58,TRUE,1110.95000000205,3
5,106,58,50,TRUE,1562.75000001187,2
5,107,56,50,TRUE,1396.46999999241,2
5,108,50,56,TRUE,1089.86999999615,2
5,109,54,50,FALSE,671.219999989262,2
5,110,50,56,TRUE,1032.11499999452,2
5,111,50,56,TRUE,1001.65500000003,2
5,112,54,50,FALSE,1363.93999999564,1
5,113,56,50,FALSE,1303.54500000249,1
5,114,58,50,FALSE,1344.35499999381,1
5,115,50,60,FALSE,1462.7349999937,1
5,116,62,50,TRUE,1073.19499998994,3
5,117,62,50,FALSE,1462.36999999383,1
5,118,50,64,TRUE,1059.37999999151,1
5,119,50,64,FALSE,1277.15999999782,1
5,120,66,50,TRUE,1143.36000000185,3
6,1,70,50,TRUE,2144.93499998935,3
6,2,70,50,TRUE,3340.03500000108,2
6,3,50,68,FALSE,1581.72499999637,3
6,4,70,50,FALSE,1290.59000001871,4
6,5,72,50,TRUE,3366.19500000961,1
6,6,72,50,TRUE,9109.83500001021,2
6,7,70,50,TRUE,1167.21499999403,3
6,8,70,50,TRUE,1824.47500000126,3
6,9,50,68,TRUE,1235.89499999071,4
6,10,68,50,TRUE,1344.96499999659,5
6,11,66,50,TRUE,982.239999982994,4
6,12,66,50,FALSE,1303.03999999887,3
6,13,50,68,TRUE,1322.54500000272,3
6,14,50,68,TRUE,1656.13499999745,3
6,15,50,66,TRUE,1589.21000000555,3
6,16,50,66,TRUE,1965.35000001313,2
6,17,50,64,TRUE,954.630000022007,3
6,18,64,50,TRUE,1000.63499997486,4
6,19,50,62,TRUE,1318.69000001461,5
6,20,50,62,TRUE,1074.19499999378,4
6,21,50,60,TRUE,1126.64000000223,3
6,22,60,50,TRUE,1174.44999999134,3
6,23,50,58,TRUE,1024.60500001325,3
6,24,58,50,TRUE,866.515000001527,3
6,25,50,56,TRUE,814.945000020089,4
6,26,56,50,TRUE,942.765000014333,5
6,27,50,54,FALSE,4098.88500001398,3
6,28,50,56,FALSE,2725.63000000082,2
6,29,58,50,FALSE,874.479999998584,3
6,30,60,50,TRUE,874.934999999823,4
6,31,60,50,TRUE,876.014999987092,4
6,32,58,50,FALSE,931.455000012647,3
6,33,60,50,TRUE,870.850000006612,2
6,34,50,60,TRUE,954.79499999783,3
6,35,58,50,TRUE,2701.06999998097,2
6,36,50,58,TRUE,1235.39999997593,3
6,37,50,56,TRUE,836.790000001201,2
6,38,56,50,FALSE,895.725000009406,4
6,39,50,58,TRUE,878.73500000569,4
6,40,50,58,TRUE,751.055000000633,3
6,41,56,50,FALSE,865.404999989551,3
6,42,50,58,TRUE,974.970000010217,3
6,43,58,50,FALSE,1108.5599999933,3
6,44,50,60,TRUE,813.389999995707,3
6,45,50,60,TRUE,681.539999990491,5
6,46,50,58,TRUE,914.67499997816,3
6,47,58,50,TRUE,1037.60500001954,4
6,48,56,50,FALSE,798.710000002757,3
6,49,58,50,TRUE,814.184999995632,3
6,50,58,50,TRUE,1019.11500000278,3
6,51,56,50,FALSE,916.840000019874,3
6,52,50,58,TRUE,756.950000009965,4
6,53,50,58,TRUE,703.699999983655,4
6,54,56,50,FALSE,665.169999992941,2
6,55,50,58,FALSE,872.074999992037,3
6,56,50,60,TRUE,1326.8799999787,3
6,57,50,60,TRUE,1372.14500000118,3
6,58,58,50,FALSE,940.224999998463,4
6,59,60,50,FALSE,831.085000012536,4
6,60,62,50,TRUE,1187.47500001336,3
6,61,50,62,TRUE,819.399999978486,6
6,62,60,50,FALSE,898.064999986673,4
6,63,50,62,TRUE,761.769999982789,4
6,64,50,62,FALSE,1082.36999998917,3
6,65,64,50,TRUE,1622.77000001632,4
6,66,64,50,TRUE,623.619999998482,4
6,67,50,62,TRUE,779.559999995399,6
6,68,62,50,TRUE,938.62000000081,5
6,69,50,60,TRUE,1370.25499998708,4
6,70,50,60,TRUE,955.884999973932,4
6,71,50,58,TRUE,850.299999990966,4
6,72,50,58,TRUE,835.02500000759,5
6,73,56,50,TRUE,886.650000000373,3
6,74,56,50,TRUE,780.005000007804,3
6,75,50,54,TRUE,575.345000019297,3
6,76,54,50,FALSE,633.430000016233,4
6,77,50,56,TRUE,628.584999998566,3
6,78,50,56,FALSE,2255.73500001337,2
6,79,50,58,TRUE,712.874999997439,5
6,80,58,50,TRUE,1211.00499999011,5
6,81,50,56,TRUE,943.245000002207,5
6,82,56,50,TRUE,1110.69000000134,5
6,83,50,54,TRUE,1079.91999998922,5
6,84,50,54,TRUE,861.510000017006,4
6,85,50,52,FALSE,1346.11500002211,4
6,86,50,54,TRUE,768.760000006296,3
6,87,50,54,TRUE,609.985000017332,1
6,88,52,50,TRUE,1256.76499999827,2
6,89,52,50,FALSE,1068.85500001954,3
6,90,54,50,FALSE,1056.54499999946,4
6,91,50,56,FALSE,568.395000009332,3
6,92,50,58,TRUE,733.009999996284,5
6,93,58,50,TRUE,928.010000003269,5
6,94,50,56,TRUE,731.685000006109,1
6,95,50,56,TRUE,1284.38999998616,4
6,96,54,50,TRUE,1657.86500001559,2
6,97,54,50,FALSE,843.670000002021,3
6,98,50,56,TRUE,897.085000004154,3
6,99,50,56,FALSE,3157.23499999149,2
6,100,50,58,TRUE,821.129999996629,5
6,101,58,50,TRUE,1221.61500001675,5
6,102,50,56,FALSE,950.320000003558,5
6,103,50,58,TRUE,789.760000014212,5
6,104,50,58,TRUE,756.28499998129,5
6,105,56,50,FALSE,957.23500000895,2
6,106,58,50,FALSE,1552.51999999746,4
6,107,50,60,FALSE,830.729999986943,3
6,108,50,62,TRUE,622.795000002952,3
6,109,62,50,TRUE,3675.92000000877,2
6,110,60,50,TRUE,1142.22999999765,4
6,111,50,60,TRUE,956.39000000665,4
6,112,50,58,TRUE,830.925000016578,3
6,113,58,50,TRUE,1233.00000000745,3
6,114,56,50,FALSE,539.79999999865,4
6,115,50,58,TRUE,643.095000006724,4
6,116,58,50,TRUE,1578.04500000202,3
6,117,50,56,TRUE,639.254999987315,4
6,118,50,56,TRUE,569.480000005569,5
6,119,54,50,TRUE,875.27499999851,3
6,120,50,54,TRUE,649.485000001732,5
7,1,70,50,TRUE,1162.29999999632,4
7,2,70,50,TRUE,1481.95000000123,4
7,3,68,50,TRUE,1644.64499999303,5
7,4,50,68,TRUE,1159.12499999104,5
7,5,50,66,TRUE,1024.18500000203,4
7,6,66,50,TRUE,1226.39999999956,3
7,7,50,64,TRUE,1166.4199999941,6
7,8,64,50,TRUE,1182.65499999688,4
7,9,62,50,TRUE,1127.77000000642,3
7,10,62,50,TRUE,2259.56500000029,4
7,11,60,50,TRUE,1182.38500000734,3
7,12,60,50,TRUE,1136.15000000573,3
7,13,58,50,TRUE,2475.70500000438,3
7,14,58,50,FALSE,1079.34999999998,3
7,15,50,60,TRUE,1365.30499999935,4
7,16,60,50,TRUE,939.155000000028,3
7,17,50,58,TRUE,1231.19000000588,3
7,18,58,50,TRUE,4064.92000000435,3
7,19,50,56,TRUE,960.305000000517,3
7,20,56,50,TRUE,1099.99499999685,3
7,21,54,50,TRUE,955.354999998235,4
7,22,54,50,TRUE,987.695000003441,3
7,23,50,52,TRUE,843.370000002324,4
7,24,50,52,FALSE,930.334999997285,3
7,25,50,54,TRUE,1524.68500001123,4
7,26,50,54,TRUE,915.594999998575,5
7,27,50,52,TRUE,1139.87500000803,5
7,28,52,50,TRUE,1102.39499999443,4
7,29,50,52,TRUE,3181.32500001229,4
7,30,52,50,TRUE,1982.6849999954,4
7,31,50,52,TRUE,2383.80500000494,4
7,32,52,50,TRUE,981.14999999234,4
7,33,50,52,FALSE,1789.44999999658,2
7,34,54,50,FALSE,995.690000010654,1
7,35,56,50,FALSE,1412.93999999471,3
7,36,58,50,TRUE,1083.90499999223,3
7,37,50,58,TRUE,1424.03500000364,4
7,38,56,50,TRUE,915.324999994482,4
7,39,50,56,TRUE,883.755000002566,3
7,40,50,54,FALSE,1006.55000000552,3
7,41,50,56,FALSE,1149.76000000024,3
7,42,58,50,FALSE,900.825000004261,4
7,43,60,50,TRUE,1435.96000000252,2
7,44,50,60,TRUE,964.610000009998,3
7,45,50,58,TRUE,1007.53000000259,3
7,46,58,50,TRUE,923.469999994268,3
7,47,56,50,FALSE,902.524999997695,3
7,48,50,58,TRUE,881.215000001248,4
7,49,50,58,TRUE,1428.65499999607,4
7,50,56,50,TRUE,875.204999989364,3
7,51,56,50,TRUE,1717.05500000098,3
7,52,54,50,TRUE,1009.59000000148,3
7,53,50,54,TRUE,800.759999998263,3
7,54,52,50,TRUE,1131.52999999875,3
7,55,52,50,FALSE,516.999999992549,3
7,56,54,50,TRUE,884.559999991325,3
7,57,50,54,TRUE,987.525000004098,3
7,58,52,50,FALSE,1145.31500000157,3
7,59,50,54,TRUE,877.375000010943,4
7,60,50,54,TRUE,843.769999992219,4
7,61,52,50,TRUE,1308.21499999729,3
7,62,52,50,TRUE,1615.82500000077,3
7,63,50,52,TRUE,1010.26500000444,3
7,64,50,52,TRUE,862.43999999715,4
7,65,52,50,FALSE,1121.05500001053,4
7,66,54,50,TRUE,1403.68000000308,3
7,67,54,50,TRUE,1037.92500001146,3
7,68,50,52,TRUE,1206.79999999993,3
7,69,50,52,TRUE,1861.19000001054,4
7,70,52,50,FALSE,838.50500000699,4
7,71,50,54,TRUE,797.074999994948,4
7,72,54,50,TRUE,1200.77999999921,3
7,73,52,50,FALSE,896.954999989248,4
7,74,50,54,FALSE,1012.22000000416,3
7,75,50,56,TRUE,2704.95499999379,1
7,76,50,56,TRUE,1349.93499999109,2
7,77,54,50,TRUE,1065.895000007,2
7,78,50,54,TRUE,846.855000010692,4
7,79,52,50,TRUE,1196.61999998789,3
7,80,52,50,FALSE,794.844999996712,3
7,81,54,50,TRUE,1039.24499999266,4
7,82,50,54,TRUE,869.745000003604,3
7,83,50,52,TRUE,1630.01999999688,3
7,84,50,52,TRUE,1351.07000000426,3
7,85,52,50,TRUE,1137.80500000576,3
7,86,52,50,FALSE,971.319999996922,4
7,87,54,50,TRUE,1070.6499999942,4
7,88,54,50,TRUE,838.210000001709,4
7,89,50,52,TRUE,935.445000010077,4
7,90,52,50,TRUE,1622.4649999931,3
7,91,52,50,FALSE,724.09499999776,4
7,92,50,54,TRUE,2405.23500001291,4
7,93,50,54,FALSE,1086.37999999337,4
7,94,56,50,TRUE,1053.79000000539,3
7,95,56,50,FALSE,2243.21999998938,3
7,96,50,58,TRUE,749.400000000605,3
7,97,58,50,TRUE,624.444999994012,3
7,98,56,50,TRUE,1385.6700000033,4
7,99,50,56,TRUE,849.520000003395,5
7,100,50,54,TRUE,1894.13000000059,4
7,101,50,54,TRUE,857.384999995702,4
7,102,50,52,TRUE,2319.41999999981,4
7,103,52,50,TRUE,1288.67000000901,3
7,104,52,50,TRUE,1141.7999999976,5
7,105,50,52,TRUE,1113.88499999885,4
7,106,52,50,FALSE,1117.25999999908,4
7,107,54,50,TRUE,1020.15499999106,3
7,108,50,54,FALSE,2215.5849999981,4
7,109,56,50,TRUE,852.794999998878,3
7,110,50,56,FALSE,881.699999998091,3
7,111,58,50,TRUE,885.135000004084,3
7,112,50,58,TRUE,1041.55500000343,5
7,113,56,50,FALSE,1852.76999999769,4
7,114,50,58,TRUE,1044.2400000029,4
7,115,50,58,TRUE,760.244999997667,4
7,116,50,56,FALSE,1061.94999998843,3
7,117,50,58,TRUE,681.624999997439,4
7,118,58,50,FALSE,1270.88999999978,4
7,119,50,60,TRUE,929.09000000509,4
7,120,50,60,TRUE,800.220000004629,3
8,1,50,70,TRUE,1223.19499985315,4
8,2,50,70,FALSE,1924.31999999098,1
8,3,72,50,TRUE,926.454999949783,5
8,4,72,50,TRUE,1238.21000009775,2
8,5,70,50,TRUE,965.360000031069,4
8,6,70,50,TRUE,878.779999911785,4
8,7,50,68,TRUE,868.990000104532,3
8,8,68,50,TRUE,608.059999998659,3
8,9,66,50,FALSE,1032.21999993548,2
8,10,50,68,TRUE,998.150000115857,4
8,11,50,68,TRUE,913.750000065193,4
8,12,50,66,TRUE,654.600000008941,5
8,13,66,50,TRUE,911.525000119582,2
8,14,50,64,TRUE,731.339999940246,5
8,15,50,64,TRUE,910.434999968857,6
8,16,62,50,FALSE,1253.22000007145,3
8,17,64,50,FALSE,922.645000042394,2
8,18,66,50,TRUE,1245.12999993749,1
8,19,66,50,TRUE,1117.20500001684,1
8,20,50,64,TRUE,968.140000011772,4
8,21,50,64,TRUE,709.749999921769,3
8,22,62,50,TRUE,990.630000131205,2
8,23,62,50,TRUE,953.375000040978,2
8,24,60,50,TRUE,789.885000092909,3
8,25,50,60,TRUE,735.739999916404,3
8,26,58,50,FALSE,966.284999856725,2
8,27,60,50,TRUE,820.044999942183,4
8,28,50,60,TRUE,863.850000081584,2
8,29,58,50,FALSE,746.990000130609,3
8,30,60,50,TRUE,1059.20000001788,1
8,31,60,50,TRUE,1353.45500009134,1
8,32,58,50,TRUE,875.19000004977,2
8,33,50,58,TRUE,949.294999940321,4
8,34,56,50,FALSE,1277.57999999449,2
8,35,58,50,TRUE,1172.20500018448,1
8,36,58,50,FALSE,1036.51000000536,2
8,37,60,50,FALSE,887.445000000298,2
8,38,62,50,FALSE,2119.93499984965,1
8,39,50,64,TRUE,975.945000071079,3
8,40,64,50,TRUE,1165.65499990247,1
8,41,62,50,TRUE,969.614999834448,4
8,42,50,62,TRUE,1308.90000006184,2
8,43,50,60,TRUE,878.614999819547,5
8,44,50,60,TRUE,859.949999954551,5
8,45,50,58,TRUE,1126.69999990612,4
8,46,50,58,TRUE,830.150000052527,4
8,47,56,50,FALSE,867.085000034422,2
8,48,50,58,FALSE,979.035000083968,1
8,49,60,50,TRUE,1382.05499993637,2
8,50,60,50,TRUE,1434.81000000611,2
8,51,58,50,TRUE,1180.93000003137,1
8,52,50,58,FALSE,656.935000093654,1
8,53,60,50,TRUE,907.484999857843,4
8,54,60,50,TRUE,1005.93500002287,2
8,55,58,50,TRUE,695.539999986067,4
8,56,50,58,FALSE,971.260000020266,3
8,57,60,50,FALSE,748.045000014827,4
8,58,62,50,TRUE,866.884999908507,2
8,59,50,62,TRUE,1140.07500000298,5
8,60,60,50,TRUE,1348.27499999665,3
8,61,50,60,TRUE,1231.5449998714,5
8,62,50,58,FALSE,1057.04999994487,2
8,63,50,60,TRUE,555.924999993294,4
8,64,60,50,TRUE,946.059999987483,3
8,65,50,58,TRUE,1126.04999984615,1
8,66,58,50,FALSE,1726.03500005789,1
8,67,50,60,TRUE,985.365000087768,2
8,68,60,50,TRUE,1385.46000001952,1
8,69,50,58,TRUE,1247.83000000753,1
8,70,50,58,TRUE,664.179999846965,2
8,71,50,56,TRUE,618.495000060648,2
8,72,56,50,TRUE,1191.98000011966,1
8,73,50,54,FALSE,1187.52000015229,1
8,74,50,56,TRUE,1017.32000010088,2
8,75,56,50,FALSE,1062.98499996774,2
8,76,50,58,TRUE,1294.29000010714,3
8,77,58,50,TRUE,1183.24000015855,1
8,78,50,56,FALSE,1172.50499990769,1
8,79,50,58,TRUE,1339.32500006631,2
8,80,58,50,TRUE,1302.65500000678,2
8,81,56,50,FALSE,1584.4550000038,3
8,82,58,50,TRUE,1275.5050000269,2
8,83,58,50,TRUE,1071.61500002258,2
8,84,56,50,TRUE,1308.18500020541,2
8,85,50,56,TRUE,1355.4750001058,4
8,86,54,50,TRUE,1331.44499990158,2
8,87,50,54,FALSE,1209.28000006825,3
8,88,56,50,TRUE,1282.25500020199,1
8,89,56,50,FALSE,1229.41999998875,3
8,90,58,50,FALSE,1303.69999981485,2
8,91,60,50,FALSE,1353.75999985263,1
8,92,62,50,TRUE,1167.82500012778,2
8,93,50,62,TRUE,1129.30499995127,3
8,94,60,50,FALSE,1349.12999998778,2
8,95,50,62,TRUE,1499.14500000887,4
8,96,62,50,TRUE,5856.45500011742,2
8,97,50,60,TRUE,1118.65500011481,4
8,98,60,50,FALSE,1402.93499990366,3
8,99,62,50,TRUE,1338.62500009127,2
8,100,62,50,TRUE,2407.51000004821,2
8,101,60,50,TRUE,1241.15499993786,1
8,102,60,50,TRUE,989.360000006855,4
8,103,50,58,TRUE,1540.23500019684,3
8,104,58,50,TRUE,1166.44000005908,1
8,105,56,50,FALSE,994.545000139624,4
8,106,58,50,FALSE,1236.67500005104,1
8,107,60,50,FALSE,919.604999944568,2
8,108,62,50,TRUE,1118.74000006355,1
8,109,50,62,TRUE,956.234999932349,2
8,110,60,50,TRUE,924.050000030547,3
8,111,50,60,TRUE,958.204999798909,2
8,112,50,58,FALSE,978.710000170395,1
8,113,60,50,TRUE,1097.42499981076,2
8,114,50,60,TRUE,1073.74500017613,2
8,115,50,58,FALSE,1215.50499997102,1
8,116,50,60,TRUE,602.15499997139,4
8,117,50,60,TRUE,1069.52999997884,5
8,118,58,50,TRUE,1008.32999986596,5
8,119,50,58,TRUE,1062.21499992535,4
8,120,50,56,TRUE,1276.14500001073,3
9,1,70,50,TRUE,5922.92000000003,1
9,2,70,50,FALSE,3490.38000000008,2
9,3,50,72,TRUE,2218.57,6
9,4,50,72,TRUE,1222.17000000001,6
9,5,70,50,FALSE,2755.51500000006,1
9,6,50,72,TRUE,957.105000000069,6
9,7,72,50,TRUE,1059.51500000003,6
9,8,70,50,TRUE,1011.86499999995,6
9,9,50,70,TRUE,862.12999999999,6
9,10,68,50,TRUE,1188.08000000002,6
9,11,50,68,TRUE,885.880000000048,6
9,12,50,66,TRUE,1255.69000000008,6
9,13,50,66,TRUE,1013.05000000002,2
9,14,64,50,TRUE,1941.56500000009,4
9,15,50,64,TRUE,1551.09500000003,4
9,16,50,62,TRUE,1034.97500000002,4
9,17,62,50,TRUE,1331.58500000002,2
9,18,60,50,TRUE,1037.00000000004,1
9,19,60,50,TRUE,2005.35500000001,3
9,20,58,50,TRUE,1498.39499999996,3
9,21,58,50,FALSE,1314.705,3
9,22,60,50,TRUE,1037.21499999994,3
9,23,60,50,FALSE,929.984999999986,5
9,24,62,50,TRUE,1065.18500000004,5
9,25,62,50,TRUE,1720.03000000007,4
9,26,60,50,FALSE,919.875000000044,6
9,27,62,50,TRUE,1110.21000000005,2
9,28,62,50,TRUE,974.09000000004,6
9,29,60,50,FALSE,1543.48000000003,1
9,30,50,62,TRUE,870.23000000001,6
9,31,50,62,TRUE,1113.34999999998,4
9,32,50,60,TRUE,998.699999999983,6
9,33,50,60,TRUE,925.280000000028,6
9,34,58,50,FALSE,985.124999999913,4
9,35,50,60,TRUE,1793.42500000008,1
9,36,50,60,TRUE,767.099999999919,6
9,37,58,50,FALSE,1225.20000000007,1
9,38,50,60,TRUE,964.979999999981,2
9,39,60,50,TRUE,1340.82000000001,1
9,40,50,58,TRUE,909.910000000091,4
9,41,58,50,TRUE,971.759999999893,6
9,42,50,56,TRUE,800.510000000038,6
9,43,56,50,FALSE,942,4
9,44,58,50,FALSE,973.495000000054,4
9,45,50,60,TRUE,800.185000000056,6
9,46,50,60,TRUE,1093.48499999999,6
9,47,58,50,TRUE,1450.04500000004,1
9,48,50,58,TRUE,1057.9899999999,2
9,49,50,56,TRUE,859.800000000076,6
9,50,50,56,FALSE,3540.05500000005,4
9,51,50,58,TRUE,766.229999999952,6
9,52,58,50,TRUE,887.955000000045,1
9,53,56,50,TRUE,1009.52500000005,1
9,54,50,56,FALSE,1107.49499999997,1
9,55,58,50,FALSE,1203.39500000002,1
9,56,50,60,TRUE,907.500000000029,2
9,57,60,50,FALSE,930.125000000087,6
9,58,62,50,TRUE,902.820000000007,1
9,59,50,62,FALSE,1035.08999999997,3
9,60,50,64,TRUE,975.505000000005,6
9,61,50,64,TRUE,1211.37,5
9,62,50,62,TRUE,2390.405,3
9,63,62,50,TRUE,857.835000000021,6
9,64,60,50,TRUE,864.820000000007,6
9,65,50,60,TRUE,712.944999999978,6
9,66,58,50,TRUE,1542.5150000001,3
9,67,58,50,FALSE,1001.66500000001,3
9,68,60,50,TRUE,2363.45000000004,3
9,69,60,50,TRUE,948.179999999964,1
9,70,50,58,TRUE,739.790000000066,5
9,71,58,50,TRUE,581.585000000021,6
9,72,56,50,FALSE,939.234999999957,4
9,73,58,50,TRUE,853.219999999943,6
9,74,50,58,TRUE,1263.12000000005,6
9,75,56,50,FALSE,1589.44999999992,2
9,76,50,58,TRUE,1396.93999999997,2
9,77,58,50,TRUE,872.094999999943,6
9,78,56,50,TRUE,889.899999999994,2
9,79,56,50,TRUE,1009.185,6
9,80,54,50,TRUE,1369.74500000008,4
9,81,50,54,TRUE,785.200000000012,6
9,82,52,50,TRUE,794.549999999959,6
9,83,50,52,FALSE,1125.64499999996,2
9,84,54,50,TRUE,2001.78000000009,1
9,85,54,50,TRUE,1108.15000000002,6
9,86,50,52,TRUE,978.725000000093,3
9,87,52,50,TRUE,867.539999999979,3
9,88,50,52,FALSE,1522.08999999997,6
9,89,50,54,FALSE,3418.15500000009,1
9,90,56,50,FALSE,890.140000000014,1
9,91,58,50,FALSE,970.080000000016,1
9,92,50,60,TRUE,1113.79499999998,4
9,93,50,60,TRUE,1705.80499999999,1
9,94,50,58,TRUE,970.190000000002,1
9,95,58,50,TRUE,1017.4850000001,1
9,96,56,50,FALSE,746.574999999953,1
9,97,58,50,FALSE,1957.22999999998,1
9,98,60,50,TRUE,1468.935,1
9,99,50,60,TRUE,1096.58500000002,1
9,100,50,58,TRUE,990.260000000009,3
9,101,58,50,TRUE,906.910000000091,5
9,102,50,56,TRUE,722.774999999907,5
9,103,56,50,TRUE,704.434999999998,3
9,104,50,54,TRUE,963.764999999956,3
9,105,54,50,FALSE,848.420000000042,5
9,106,50,56,TRUE,1296.875,1
9,107,56,50,FALSE,798.654999999912,6
9,108,58,50,TRUE,937.979999999923,6
9,109,50,58,TRUE,806.834999999963,6
9,110,50,56,FALSE,904.940000000061,6
9,111,50,58,TRUE,1000.97500000003,6
9,112,50,58,TRUE,759.119999999937,6
9,113,56,50,TRUE,920.839999999967,6
9,114,56,50,TRUE,1405.01500000001,3
9,115,54,50,FALSE,1881.61000000004,2
9,116,56,50,TRUE,990.585000000021,4
9,117,50,56,TRUE,983.414999999921,6
9,118,50,54,FALSE,1297.67500000005,1
9,119,50,56,TRUE,1113.60499999998,2
9,120,50,56,TRUE,968.989999999991,3
10,1,70,50,TRUE,1608.5299999686,4
10,2,70,50,TRUE,914.465000038035,5
10,3,68,50,TRUE,1172.94499999844,6
10,4,50,68,TRUE,1028.63000007346,3
10,5,50,66,TRUE,1156.76499996334,4
10,6,66,50,TRUE,1102.63000009581,5
10,7,64,50,TRUE,1221.2999999756,3
10,8,64,50,TRUE,1070.29500009958,5
10,9,50,62,TRUE,1078.05000001099,6
10,10,62,50,TRUE,3639.07499995548,4
10,11,60,50,FALSE,1646.60000009462,6
10,12,62,50,FALSE,1230.17500003334,5
10,13,50,64,TRUE,1101.94500000216,5
10,14,64,50,TRUE,3303.04000002798,4
10,15,50,62,TRUE,3037.89499995764,6
10,16,62,50,TRUE,1326.91499998327,3
10,17,60,50,FALSE,1046.95500002708,4
10,18,62,50,TRUE,1613.29499993008,6
10,19,50,62,TRUE,1012.37500004936,6
10,20,60,50,FALSE,1022.61500002351,5
10,21,50,62,TRUE,1063.45500005409,5
10,22,62,50,FALSE,1015.37000003736,6
10,23,64,50,TRUE,1238.73500002082,4
10,24,64,50,TRUE,1343.22499996051,5
10,25,62,50,FALSE,1086.24999993481,6
10,26,64,50,TRUE,1173.84499998298,5
10,27,50,64,TRUE,951.065000030212,6
10,28,50,62,TRUE,975.029999972321,6
10,29,62,50,TRUE,1535.92000005301,5
10,30,50,60,TRUE,1006.79000001401,6
10,31,50,60,TRUE,824.359999969602,6
10,32,50,58,TRUE,880.475000012666,6
10,33,58,50,TRUE,1241.22500000522,5
10,34,56,50,FALSE,3857.01999999583,2
10,35,50,58,TRUE,944.439999992028,6
10,36,50,58,TRUE,1455.99000004586,6
10,37,50,56,TRUE,1392.88499997929,6
10,38,56,50,FALSE,2838.77000003122,2
10,39,50,58,TRUE,1136.47999998648,5
10,40,58,50,TRUE,2871.8349999981,3
10,41,56,50,FALSE,1080.8000001125,5
10,42,50,58,TRUE,1072.34499999322,5
10,43,58,50,TRUE,3824.88500000909,3
10,44,50,56,TRUE,1128.52999998722,3
10,45,56,50,TRUE,2784.73499999382,3
10,46,50,54,TRUE,1016.74500002991,4
10,47,50,54,TRUE,2544.42499997094,3
10,48,52,50,FALSE,1136.85500004794,3
10,49,50,54,TRUE,953.100000042468,4
10,50,54,50,FALSE,1087.47499994934,5
10,51,56,50,TRUE,1120.43999996968,5
10,52,50,56,TRUE,928.019999992102,5
10,53,50,54,TRUE,1135.86999999825,4
10,54,50,54,TRUE,1105.54000001866,5
10,55,50,52,FALSE,1176.98000010569,4
10,56,50,54,TRUE,920.705000055023,5
10,57,50,54,TRUE,1768.08999991044,4
10,58,52,50,FALSE,1184.29000000469,5
10,59,54,50,TRUE,1975.71500006597,2
10,60,54,50,TRUE,1521.539999987,4
10,61,50,52,TRUE,2768.33500002977,5
10,62,52,50,TRUE,1209.29500006605,5
10,63,52,50,TRUE,1687.32499994803,3
10,64,50,52,FALSE,1296.55500000808,4
10,65,54,50,FALSE,1041.38499998953,5
10,66,56,50,TRUE,1760.78499993309,4
10,67,50,56,TRUE,1113.03999996744,6
10,68,50,54,FALSE,1968.86500006076,4
10,69,50,56,TRUE,985.405000043102,6
10,70,50,56,TRUE,1184.79999992996,6
10,71,54,50,FALSE,1303.76500007696,5
10,72,50,56,TRUE,1671.6599999927,3
10,73,50,56,TRUE,1232.45999997016,5
10,74,50,54,TRUE,1224.33999995701,6
10,75,54,50,FALSE,1048.62000001594,4
10,76,56,50,FALSE,2184.9200000288,4
10,77,58,50,TRUE,1320.53499994799,4
10,78,50,58,TRUE,1280.8649999788,3
10,79,50,56,FALSE,1113.39499999303,2
10,80,50,58,TRUE,993.200000026263,5
10,81,50,58,TRUE,904.315000050701,6
10,82,50,56,TRUE,1080.95500001218,4
10,83,50,56,FALSE,1097.99499996006,2
10,84,58,50,TRUE,1551.71000002883,2
10,85,58,50,TRUE,1248.85500001255,5
10,86,50,56,FALSE,2289.14999996778,4
10,87,50,58,TRUE,1128.81500006188,5
10,88,58,50,FALSE,1536.09499998856,6
10,89,60,50,TRUE,1008.13500001095,4
10,90,60,50,FALSE,1161.27000004053,6
10,91,62,50,TRUE,1016.19999995455,6
10,92,62,50,FALSE,1631.53999997303,2
10,93,50,64,TRUE,1337.11500000209,5
10,94,64,50,TRUE,943.949999986216,6
10,95,50,62,TRUE,896.599999978207,6
10,96,50,62,TRUE,1040.93999997713,5
10,97,60,50,TRUE,880.844999919645,4
10,98,50,60,TRUE,831.82000007946,5
10,99,58,50,TRUE,847.670000046492,5
10,100,50,58,TRUE,856.47500003688,4
10,101,50,56,TRUE,889.049999997951,4
10,102,50,56,TRUE,1720.98500002176,5
10,103,50,54,FALSE,1502.89999996312,3
10,104,56,50,FALSE,896.724999998696,4
10,105,58,50,FALSE,856.329999980517,5
10,106,60,50,FALSE,1680.30999996699,3
10,107,62,50,TRUE,1159.57999997772,3
10,108,62,50,TRUE,792.499999981374,4
10,109,50,60,TRUE,832.395000034012,5
10,110,50,60,TRUE,945.010000024922,6
10,111,50,58,TRUE,968.774999957532,6
10,112,50,58,TRUE,1080.15499997418,5
10,113,56,50,TRUE,1009.02499991935,2
10,114,56,50,TRUE,968.540000030771,5
10,115,54,50,FALSE,952.554999967106,6
10,116,56,50,FALSE,848.234999924898,5
10,117,50,58,TRUE,881.655000033788,6
10,118,58,50,TRUE,951.705000014044,4
10,119,56,50,TRUE,1945.07000001613,5
10,120,50,56,TRUE,1088.84499990381,5
11,1,70,50,TRUE,1378,5
11,2,70,50,TRUE,1243,4
11,3,50,68,TRUE,983,5
11,4,50,68,TRUE,1149,4
11,5,50,66,TRUE,988,5
11,6,50,66,TRUE,1207,5
11,7,64,50,TRUE,1263,3
11,8,50,64,TRUE,886,5
11,9,50,62,TRUE,1033,4
11,10,50,62,TRUE,12378,2
11,11,50,60,TRUE,925,3
11,12,60,50,FALSE,1209,4
11,13,50,62,TRUE,919,4
11,14,50,62,TRUE,1435,2
11,15,60,50,TRUE,1030,4
11,16,60,50,TRUE,1368,4
11,17,50,58,TRUE,1189,2
11,18,50,58,TRUE,964,4
11,19,50,56,TRUE,1084,3
11,20,50,56,FALSE,2933,1
11,21,58,50,TRUE,1349,1
11,22,50,58,TRUE,924,3
11,23,50,56,TRUE,850,4
11,24,56,50,FALSE,840,4
11,25,58,50,TRUE,2080,1
11,26,50,58,TRUE,698,5
11,27,56,50,TRUE,856,5
11,28,50,56,TRUE,848,4
11,29,54,50,TRUE,3273,1
11,30,50,54,FALSE,1076,3
11,31,56,50,TRUE,1288,2
11,32,56,50,TRUE,1168,2
11,33,50,54,TRUE,888,4
11,34,50,54,TRUE,738,3
11,35,52,50,TRUE,1136,2
11,36,52,50,TRUE,1507,2
11,37,52,50,FALSE,818,3
11,38,54,50,TRUE,1057,2
11,39,54,50,TRUE,2351,2
11,40,50,52,TRUE,811,4
11,41,52,50,FALSE,914,4
11,42,54,50,FALSE,1083,3
11,43,50,56,TRUE,823,4
11,44,50,56,TRUE,963,3
11,45,54,50,FALSE,887,4
11,46,50,56,TRUE,1049,2
11,47,56,50,TRUE,1159,2
11,48,54,50,FALSE,912,3
11,49,56,50,TRUE,1199,1
11,50,56,50,FALSE,837,4
11,51,58,50,TRUE,1375,2
11,52,58,50,TRUE,861,2
11,53,50,56,TRUE,845,4
11,54,50,56,TRUE,816,5
11,55,50,54,TRUE,2539,1
11,56,50,54,TRUE,790,4
11,57,52,50,TRUE,1138,2
11,58,50,52,FALSE,1001,2
11,59,50,54,FALSE,944,3
11,60,56,50,FALSE,756,3
11,61,58,50,TRUE,1733,2
11,62,50,58,TRUE,1385,2
11,63,50,56,TRUE,689,4
11,64,56,50,TRUE,1218,3
11,65,50,54,TRUE,841,4
11,66,54,50,TRUE,783,5
11,67,52,50,FALSE,1073,2
11,68,54,50,TRUE,895,4
11,69,54,50,TRUE,1000,2
11,70,52,50,TRUE,1161,1
11,71,50,52,TRUE,794,3
11,72,52,50,TRUE,978,2
11,73,50,52,TRUE,1031,2
11,74,52,50,FALSE,1512,1
11,75,50,54,TRUE,1182,2
11,76,54,50,TRUE,952,2
11,77,52,50,TRUE,1124,2
11,78,50,52,TRUE,1087,1
11,79,50,52,FALSE,1151,1
11,80,50,54,TRUE,862,3
11,81,50,54,TRUE,3634,1
11,82,50,52,TRUE,898,1
11,83,52,50,FALSE,889,1
11,84,50,54,TRUE,815,1
11,85,54,50,FALSE,741,1
11,86,56,50,TRUE,730,1
11,87,56,50,TRUE,1072,2
11,88,54,50,FALSE,699,2
11,89,50,56,FALSE,1266,1
11,90,50,58,FALSE,1052,1
11,91,60,50,TRUE,674,1
11,92,50,60,TRUE,732,3
11,93,50,58,TRUE,803,4
11,94,58,50,TRUE,1288,1
11,95,50,56,TRUE,1535,1
11,96,50,56,TRUE,877,3
11,97,54,50,TRUE,1355,2
11,98,50,54,TRUE,3017,1
11,99,50,52,TRUE,729,2
11,100,52,50,TRUE,1034,1
11,101,50,52,TRUE,730,3
11,102,50,52,TRUE,951,2
11,103,52,50,TRUE,1088,2
11,104,50,52,TRUE,749,2
11,105,52,50,TRUE,1646,1
11,106,50,52,FALSE,1112,1
11,107,50,54,TRUE,823,3
11,108,54,50,TRUE,1042,2
11,109,50,52,FALSE,835,2
11,110,50,54,TRUE,1449,1
11,111,54,50,FALSE,747,1
11,112,50,56,FALSE,737,1
11,113,58,50,TRUE,902,1
11,114,50,58,TRUE,816,1
11,115,50,56,TRUE,857,2
11,116,50,56,TRUE,1879,1
11,117,54,50,FALSE,818,1
11,118,50,56,TRUE,595,1
11,119,56,50,TRUE,683,2
11,120,50,54,TRUE,778,1
12,1,50,70,TRUE,6858.7849999999,4
12,2,70,50,TRUE,4934.46499999982,5
12,3,50,68,TRUE,2168.53499999979,6
12,4,68,50,TRUE,1577.69999999982,5
12,5,50,66,TRUE,861.585000000101,5
12,6,66,50,TRUE,1217.75999999999,5
12,7,64,50,TRUE,1341.86,3
12,8,50,64,TRUE,1291.04000000007,4
12,9,62,50,TRUE,2386.42999999956,3
12,10,50,62,TRUE,2319.62999999996,3
12,11,60,50,TRUE,984.890000000174,5
12,12,50,60,TRUE,2058.73499999962,5
12,13,58,50,TRUE,1451.66999999993,4
12,14,50,58,TRUE,1572.52000000016,3
12,15,56,50,TRUE,4090.77000000025,2
12,16,56,50,FALSE,2021.6349999996,2
12,17,58,50,FALSE,1560.95500000038,3
12,18,60,50,TRUE,3022.62999999993,2
12,19,50,60,TRUE,2074.41999999991,3
12,20,58,50,TRUE,1895.90000000043,4
12,21,58,50,TRUE,2745.39999999979,2
12,22,50,56,TRUE,1745.91000000009,3
12,23,50,56,TRUE,2370.59999999974,3
12,24,50,54,FALSE,3422.36999999978,2
12,25,56,50,TRUE,2937.8499999998,2
12,26,50,56,FALSE,3310.07000000001,2
12,27,58,50,TRUE,1576.80500000014,6
12,28,58,50,TRUE,3515.84000000003,3
12,29,50,56,FALSE,2206.77499999964,3
12,30,50,58,TRUE,3958.1350000003,2
12,31,58,50,TRUE,2304.25000000015,2
12,32,50,56,TRUE,1454.16999999998,5
12,33,50,56,TRUE,1641.30500000011,4
12,34,54,50,FALSE,3050.3349999999,2
12,35,56,50,TRUE,1715.35999999969,4
12,36,50,56,FALSE,1798.78999999983,2
12,37,58,50,TRUE,1075.78499999997,5
12,38,58,50,TRUE,1750.95000000013,3
12,39,50,56,TRUE,1382.60499999978,5
12,40,56,50,TRUE,2197.07000000015,3
12,41,50,54,TRUE,1322.86000000022,5
12,42,54,50,TRUE,2657.26499999984,3
12,43,50,52,TRUE,1452.65000000017,5
12,44,52,50,TRUE,2332.10499999995,3
12,45,50,52,TRUE,915.45999999973,4
12,46,50,52,TRUE,1167.72999999966,4
12,47,50,52,TRUE,1153.5100000001,5
12,48,52,50,TRUE,1789.87999999983,3
12,49,52,50,TRUE,1467.40499999988,3
12,50,52,50,FALSE,1608.13000000006,2
12,51,50,54,TRUE,1176.78500000012,2
12,52,54,50,TRUE,1347.44,3
12,53,50,52,TRUE,1470.80000000005,5
12,54,52,50,TRUE,1847.2499999998,3
12,55,50,52,TRUE,2540.66499999998,5
12,56,52,50,TRUE,996.629999999626,4
12,57,50,52,TRUE,2866.82500000007,3
12,58,50,52,FALSE,2717.47000000003,3
12,59,50,54,TRUE,1130.97999999986,5
12,60,50,54,FALSE,2201.19999999995,3
12,61,50,56,TRUE,1013.76500000013,6
12,62,50,56,TRUE,1235.95500000013,6
12,63,50,54,TRUE,1415.67999999964,4
12,64,54,50,TRUE,1353.11499999987,3
12,65,50,52,TRUE,1227.58999999997,5
12,66,50,52,TRUE,1083.90000000008,5
12,67,50,52,TRUE,1232.83499999985,4
12,68,52,50,TRUE,1890.54500000016,2
12,69,52,50,FALSE,1099.2350000001,2
12,70,50,54,TRUE,1054.60500000027,4
12,71,54,50,TRUE,1256.65999999997,3
12,72,52,50,FALSE,1268.51000000036,5
12,73,50,54,TRUE,1653.09500000009,5
12,74,50,54,TRUE,1454.41000000027,3
12,75,52,50,TRUE,1289.6700000001,4
12,76,50,52,TRUE,1200.75499999983,5
12,77,52,50,FALSE,2055.07000000036,4
12,78,50,54,FALSE,1380.22499999986,3
12,79,50,56,TRUE,977.274999999732,6
12,80,56,50,TRUE,1665.5300000002,4
12,81,54,50,FALSE,1107.48999999982,5
12,82,50,56,TRUE,1716.87000000023,6
12,83,50,56,FALSE,1738.81499999971,3
12,84,50,58,TRUE,894.985000000335,4
12,85,50,58,TRUE,1048.21499999985,4
12,86,50,56,FALSE,2583.06500000024,4
12,87,50,58,FALSE,1470.41500000021,4
12,88,50,60,TRUE,1436.90999999986,3
12,89,50,60,TRUE,1161.36499999993,5
12,90,58,50,TRUE,1425.60500000033,2
12,91,58,50,FALSE,1283.57499999995,2
12,92,60,50,TRUE,1647.96500000008,4
12,93,60,50,TRUE,1124.4899999997,3
12,94,50,58,TRUE,968.229999999981,5
12,95,50,58,FALSE,2615.09500000009,4
12,96,50,60,TRUE,999.714999999909,5
12,97,50,60,TRUE,987.359999999637,6
12,98,50,58,TRUE,1025.84500000015,6
12,99,50,58,TRUE,1019.92999999993,6
12,100,50,56,TRUE,2560.08500000008,4
12,101,50,56,FALSE,1611.29000000033,4
12,102,50,58,TRUE,985.639999999898,5
12,103,50,58,TRUE,959.534999999916,6
12,104,56,50,TRUE,1590.13499999989,4
12,105,56,50,FALSE,1241.07000000001,4
12,106,58,50,TRUE,1479.68500000029,3
12,107,58,50,FALSE,1878.46000000037,5
12,108,60,50,FALSE,1328.10999999993,4
12,109,50,62,TRUE,1191.65499999968,5
12,110,50,62,FALSE,1446.95499999984,3
12,111,50,64,TRUE,1198.55999999982,6
12,112,50,64,TRUE,1158.14499999984,6
12,113,62,50,TRUE,1100.53500000003,5
12,114,62,50,TRUE,1042.49500000011,5
12,115,50,60,TRUE,1058.66500000004,6
12,116,50,60,TRUE,1080.64500000002,3
12,117,58,50,FALSE,1110.2350000001,4
12,118,60,50,TRUE,1001.63500000007,6
12,119,50,60,TRUE,1487.95000000019,5
12,120,50,58,TRUE,2820.31000000006,3
13,1,50,70,TRUE,1156.36500000255,4
13,2,70,50,TRUE,1072.99000000057,4
13,3,68,50,TRUE,1219.20500000124,4
13,4,50,68,TRUE,968.630000003031,2
13,5,66,50,TRUE,1344.47499999078,3
13,6,66,50,TRUE,1614.15999999736,2
13,7,50,64,FALSE,1156.51000000071,1
13,8,50,66,TRUE,1081.88500000688,5
13,9,50,66,TRUE,1254.21500000812,3
13,10,64,50,TRUE,1670.87999999058,2
13,11,50,64,TRUE,4859.57499999495,3
13,12,50,62,TRUE,1196.61499999347,2
13,13,50,62,TRUE,2222.48500000569,2
13,14,60,50,TRUE,2073.65999999456,1
13,15,60,50,TRUE,1447.56500000949,4
13,16,58,50,FALSE,1942.83999998879,5
13,17,60,50,TRUE,1870.05000001227,2
13,18,60,50,FALSE,1579.94500000495,2
13,19,62,50,TRUE,1254.28999999713,3
13,20,62,50,FALSE,2018.88499999768,5
13,21,64,50,TRUE,1310.8249999932,3
13,22,64,50,TRUE,1573.7850000005,3
13,23,62,50,TRUE,1595.02000000793,5
13,24,62,50,TRUE,1664.90499999782,2
13,25,60,50,TRUE,1447.79999999446,3
13,26,50,60,FALSE,2146.28000000084,3
13,27,62,50,TRUE,4170.96500001207,2
13,28,50,62,TRUE,1419.69999999856,4
13,29,60,50,FALSE,1252.91999999899,5
13,30,62,50,TRUE,1143.90500000445,4
13,31,62,50,TRUE,1172.68999999214,4
13,32,60,50,TRUE,2223.68500000448,3
13,33,50,60,TRUE,1262.51500000944,2
13,34,50,58,TRUE,1459.95499999844,2
13,35,58,50,FALSE,1618.0100000056,1
13,36,60,50,TRUE,1487.05500000506,1
13,37,60,50,TRUE,1210.3000000061,2
13,38,50,58,TRUE,2194.83500000206,2
13,39,58,50,TRUE,1524.86000000499,3
13,40,56,50,TRUE,1315.31999999424,3
13,41,56,50,TRUE,1602.75000000547,3
13,42,50,54,TRUE,1579.70499999647,2
13,43,54,50,FALSE,4212.31499999703,3
13,44,56,50,TRUE,13051.7350000009,2
13,45,50,56,TRUE,2203.23499999358,5
13,46,50,54,TRUE,2820.24000000092,5
13,47,54,50,TRUE,1466.29499999108,5
13,48,52,50,TRUE,1132.27000000188,4
13,49,50,52,TRUE,1138.99499998661,5
13,50,52,50,TRUE,1137.09499999823,5
13,51,52,50,FALSE,2369.74999999802,3
13,52,50,54,FALSE,3411.59000000334,3
13,53,56,50,FALSE,1513.21000000462,2
13,54,58,50,TRUE,1150.90999999666,3
13,55,50,58,TRUE,920.92999999295,5
13,56,50,56,TRUE,1109.73000001104,5
13,57,50,56,TRUE,1448.88999999966,6
13,58,50,54,FALSE,1094.0649999975,6
13,59,56,50,TRUE,1205.00000000175,3
13,60,50,56,TRUE,1419.98999999487,6
13,61,54,50,TRUE,1040.08999999496,6
13,62,54,50,TRUE,2245.33499999961,3
13,63,50,52,TRUE,1450.23000000219,3
13,64,52,50,TRUE,1214.14999999979,5
13,65,50,52,FALSE,1275.68500000052,5
13,66,50,54,TRUE,1276.9100000005,5
13,67,54,50,TRUE,1294.64999999618,5
13,68,50,52,TRUE,1030.66499999841,5
13,69,52,50,TRUE,1115.68000000261,5
13,70,50,52,TRUE,1173.28000000271,3
13,71,52,50,TRUE,1495.53500000911,3
13,72,52,50,FALSE,1104.36499999196,5
13,73,50,54,TRUE,1045.27499999676,6
13,74,50,54,FALSE,1651.01999999024,5
13,75,50,56,FALSE,1261.54000000679,5
13,76,58,50,TRUE,1221.43499999947,5
13,77,58,50,TRUE,1622.00000000303,6
13,78,50,56,TRUE,1212.98500000557,6
13,79,56,50,TRUE,1099.09000000334,6
13,80,50,54,TRUE,1475.83999999915,1
13,81,54,50,TRUE,1544.85000000568,2
13,82,52,50,FALSE,1144.67500000319,4
13,83,50,54,TRUE,993.295000007492,5
13,84,54,50,TRUE,986.620000010589,5
13,85,50,52,TRUE,1157.06499999214,6
13,86,52,50,TRUE,1221.39500000048,5
13,87,52,50,TRUE,1117.59000000893,5
13,88,52,50,TRUE,1155.26499999396,5
13,89,52,50,TRUE,912.064999996801,3
13,90,52,50,TRUE,945.074999995995,4
13,91,52,50,TRUE,1112.23499999323,1
13,92,50,52,FALSE,1049.57999999169,4
13,93,54,50,TRUE,1058.62499999057,6
13,94,50,54,TRUE,1274.51000000292,1
13,95,50,52,FALSE,1170.42500000389,3
13,96,54,50,TRUE,1498.68500001321,3
13,97,50,54,TRUE,920.750000004773,6
13,98,52,50,FALSE,1209.1700000019,6
13,99,50,54,FALSE,1191.0649999918,1
13,100,56,50,TRUE,1051.77999999432,3
13,101,56,50,TRUE,921.275000000605,3
13,102,50,54,TRUE,1061.21499999426,5
13,103,54,50,TRUE,1026.37500000128,2
13,104,50,52,TRUE,1110.54500000319,3
13,105,52,50,TRUE,966.245000003255,4
13,106,52,50,FALSE,1030.1899999904,5
13,107,54,50,TRUE,892.554999998538,2
13,108,50,54,TRUE,1084.18499999971,1
13,109,50,52,FALSE,1161.57500000554,3
13,110,54,50,TRUE,1108.74000001058,3
13,111,50,54,TRUE,1152.69499999704,4
13,112,50,52,FALSE,971.340000003693,3
13,113,50,54,FALSE,1399.85000000161,3
13,114,56,50,TRUE,2580.85500000743,3
13,115,56,50,FALSE,908.995000005234,1
13,116,50,58,TRUE,1021.95499998925,3
13,117,50,58,TRUE,1331.73499999975,3
13,118,56,50,TRUE,1015.93499998853,5
13,119,56,50,TRUE,1112.35999999917,5
13,120,50,54,TRUE,1219.0949999931,3
14,1,70,50,TRUE,2973.6349999439,1
14,2,70,50,TRUE,1803.75000007916,4
14,3,50,68,TRUE,1505.81999996211,5
14,4,68,50,FALSE,3023.70999997947,5
14,5,50,70,TRUE,4403.7000000244,5
14,6,70,50,TRUE,1517.78500003275,6
14,7,68,50,TRUE,1401.68500004802,6
14,8,50,68,TRUE,1494.47500007227,6
14,9,66,50,TRUE,1151.30000002682,6
14,10,66,50,TRUE,1060.70499995258,6
14,11,50,64,TRUE,1104.53000001144,6
14,12,64,50,TRUE,1299.09500002395,6
14,13,50,62,FALSE,1309.49000001419,6
14,14,50,64,FALSE,1039.73499999847,6
14,15,66,50,TRUE,1188.08999995235,6
14,16,50,66,FALSE,4974.21000001486,3
14,17,50,68,TRUE,1805.7549999794,6
14,18,68,50,TRUE,1180.55500008631,6
14,19,50,66,TRUE,1099.57500000019,5
14,20,50,66,FALSE,1747.99499998335,4
14,21,50,68,TRUE,1343.69500004686,6
14,22,68,50,TRUE,1042.9249999579,6
14,23,50,66,TRUE,1138.27999995556,4
14,24,66,50,TRUE,1260.26499993168,6
14,25,64,50,FALSE,1104.65500003193,6
14,26,66,50,TRUE,1103.12499990687,6
14,27,66,50,TRUE,1091.13499999512,6
14,28,64,50,FALSE,4996.15999998059,1
14,29,50,66,TRUE,1197.74500001222,5
14,30,66,50,TRUE,1048.16000000574,5
14,31,64,50,TRUE,1423.43500000425,5
14,32,50,64,TRUE,1028.50500005297,6
14,33,62,50,TRUE,1040.75499996543,6
14,34,50,62,TRUE,927.84500005655,6
14,35,60,50,TRUE,1004.82499995269,6
14,36,50,60,TRUE,1091.75000002142,5
14,37,58,50,TRUE,1068.8300000038,5
14,38,50,58,FALSE,1087.41500007454,5
14,39,60,50,TRUE,2319.8600000469,2
14,40,50,60,TRUE,1518.19999993313,6
14,41,50,58,FALSE,1152.35999994911,4
14,42,50,60,FALSE,1212.81499997713,5
14,43,62,50,TRUE,1184.5650000032,5
14,44,62,50,TRUE,1272.13499997742,5
14,45,50,60,FALSE,1038.41999999713,5
14,46,62,50,TRUE,1093.49500003736,5
14,47,62,50,TRUE,1105.05499993451,5
14,48,50,60,FALSE,2557.57499998435,2
14,49,50,62,FALSE,1940.6799999997,4
14,50,64,50,TRUE,1799.14999997709,5
14,51,64,50,TRUE,1022.51000003889,5
14,52,50,62,TRUE,1453.39499996044,3
14,53,62,50,TRUE,1139.7799999686,4
14,54,60,50,TRUE,1075.7450000383,5
14,55,60,50,TRUE,1313.25999996625,4
14,56,58,50,TRUE,2093.35999994073,4
14,57,50,58,TRUE,1996.33500003256,2
14,58,56,50,TRUE,1403.24500005227,4
14,59,50,56,TRUE,2060.53499993868,3
14,60,50,54,FALSE,1410.45500000473,2
14,61,56,50,TRUE,1727.17500000726,4
14,62,50,56,TRUE,1185.22999994457,3
14,63,50,54,FALSE,1230.67999992054,2
14,64,56,50,TRUE,1348.25999999885,2
14,65,56,50,TRUE,1645.58000001125,2
14,66,50,54,FALSE,1185.24000002071,2
14,67,50,56,FALSE,2165.45500000939,2
14,68,58,50,TRUE,1108.60499995761,2
14,69,50,58,FALSE,1011.2599999411,2
14,70,50,60,FALSE,970.175000024028,2
14,71,50,62,FALSE,1431.05000001378,1
14,72,50,64,FALSE,1070.75499999337,1
14,73,66,50,TRUE,1308.46500000916,2
14,74,66,50,TRUE,968.575000064448,2
14,75,64,50,TRUE,1064.87499992363,1
14,76,64,50,TRUE,1326.83499995619,3
14,77,50,62,FALSE,969.245000043884,3
14,78,50,64,TRUE,1320.97000000067,4
14,79,64,50,TRUE,1286.04999999516,5
14,80,62,50,TRUE,1052.01500002295,5
14,81,50,62,FALSE,7631.95000006817,1
14,82,64,50,TRUE,1193.014999968,5
14,83,64,50,TRUE,1289.06999994069,4
14,84,62,50,TRUE,1134.57499991637,5
14,85,50,62,TRUE,1158.78500009421,5
14,86,50,60,FALSE,1569.40499995835,3
14,87,50,62,FALSE,1244.55000006128,2
14,88,50,64,TRUE,1149.9199999962,5
14,89,64,50,TRUE,932.81000002753,5
14,90,62,50,TRUE,1075.01000002958,5
14,91,62,50,TRUE,998.404999962077,5
14,92,60,50,TRUE,992.164999945089,5
14,93,60,50,TRUE,870.439999969676,6
14,94,58,50,TRUE,1266.38499996625,6
14,95,50,58,FALSE,1027.47499989346,4
14,96,60,50,TRUE,836.8049999699,5
14,97,50,60,TRUE,1719.98499997426,5
14,98,50,58,TRUE,852.400000090711,6
14,99,58,50,TRUE,1032.43000002112,4
14,100,50,56,TRUE,1019.69999994617,4
14,101,50,56,TRUE,927.110000047833,4
14,102,54,50,TRUE,970.244999974966,4
14,103,54,50,TRUE,757.704999996349,5
14,104,50,52,FALSE,1995.90500001796,5
14,105,50,54,FALSE,1823.82499997038,3
14,106,50,56,TRUE,1200.48500003759,4
14,107,50,56,TRUE,1198.63500003703,4
14,108,50,54,TRUE,1708.12500000466,2
14,109,54,50,TRUE,1189.36499999836,1
14,110,52,50,FALSE,1241.8399999151,2
14,111,54,50,TRUE,1815.21999998949,1
14,112,50,54,TRUE,968.995000002906,3
14,113,52,50,FALSE,1002.69999995362,1
14,114,54,50,TRUE,2105.73000006843,4
14,115,54,50,FALSE,1510.31499996316,5
14,116,56,50,TRUE,1606.63500009105,5
14,117,50,56,TRUE,1119.54500002321,6
14,118,50,54,TRUE,2085.55499999784,4
14,119,54,50,TRUE,1260.63000003342,5
14,120,52,50,FALSE,1653.63499999512,2
15,1,50,70,TRUE,1147.40000001621,2
15,2,70,50,TRUE,1971.6999999946,4
15,3,68,50,TRUE,1111.62000003969,5
15,4,50,68,FALSE,1951.26500003971,2
15,5,70,50,TRUE,999.524999991991,5
15,6,50,70,TRUE,1551.94999999367,3
15,7,50,68,TRUE,1399.83999996912,2
15,8,50,68,TRUE,1217.24999998696,4
15,9,50,66,TRUE,1288.72499999125,5
15,10,50,66,TRUE,1273.00499996636,3
15,11,64,50,TRUE,1209.23500001663,4
15,12,50,64,TRUE,1024.08000000287,5
15,13,62,50,TRUE,888.394999958109,4
15,14,50,62,TRUE,1065.40500000119,3
15,15,50,60,TRUE,953.809999977238,4
15,16,50,60,FALSE,1376.9050000119,3
15,17,62,50,TRUE,1040.83000001265,4
15,18,62,50,TRUE,888.169999991078,5
15,19,50,60,TRUE,807.350000017323,5
15,20,50,60,TRUE,1065.15999999829,5
15,21,58,50,TRUE,850.219999963883,6
15,22,50,58,TRUE,914.404999988619,4
15,23,50,56,FALSE,1162.69000002649,3
15,24,50,58,TRUE,1369.74000005284,3
15,25,50,58,TRUE,1162.13999997126,2
15,26,56,50,TRUE,960.750000027474,5
15,27,50,56,TRUE,994.330000015907,3
15,28,50,54,FALSE,953.794999979436,4
15,29,56,50,TRUE,891.180000035092,5
15,30,50,56,TRUE,1057.36500001512,2
15,31,50,54,FALSE,954.599999997299,5
15,32,56,50,TRUE,1074.15499998024,3
15,33,56,50,TRUE,1146.88499999465,5
15,34,54,50,TRUE,914.709999982733,5
15,35,50,54,TRUE,1026.60500002094,4
15,36,50,52,FALSE,1211.66500000982,3
15,37,54,50,TRUE,882.319999975152,5
15,38,50,54,TRUE,874.745000037365,4
15,39,52,50,FALSE,1090.58999997796,3
15,40,50,54,TRUE,930.785000033211,5
15,41,50,54,TRUE,891.494999988936,4
15,42,52,50,TRUE,1162.9950000206,3
15,43,52,50,TRUE,1363.04000002565,4
15,44,52,50,TRUE,995.120000035968,5
15,45,50,52,TRUE,738.749999960419,5
15,46,52,50,TRUE,1042.55499999272,3
15,47,52,50,FALSE,986.395000014454,5
15,48,54,50,TRUE,1609.16500003077,5
15,49,54,50,FALSE,971.094999986235,5
15,50,50,56,FALSE,946.845000027679,2
15,51,58,50,TRUE,794.555000029504,4
15,52,58,50,TRUE,811.23499997193,5
15,53,56,50,TRUE,962.564999994356,4
15,54,56,50,FALSE,794.35000004014,4
15,55,58,50,TRUE,850.535000034142,5
15,56,50,58,TRUE,898.775000008754,5
15,57,56,50,TRUE,890.844999987166,5
15,58,56,50,TRUE,810.179999971297,4
15,59,54,50,FALSE,1994.70500001917,2
15,60,56,50,TRUE,1199.96999995783,5
15,61,56,50,TRUE,1242.06999997841,3
15,62,50,54,FALSE,1050.80000002636,4
15,63,50,56,TRUE,787.459999963176,5
15,64,50,56,TRUE,1330.98999998765,5
15,65,54,50,FALSE,1307.30500002392,4
15,66,50,56,TRUE,1138.65999999689,4
15,67,50,56,TRUE,1427.02000000281,5
15,68,54,50,TRUE,1097.99999999814,5
15,69,50,54,FALSE,2650.25499998592,3
15,70,56,50,TRUE,1098.83999999147,3
15,71,50,56,TRUE,993.810000014491,5
15,72,54,50,TRUE,1106.34500003653,4
15,73,50,54,TRUE,826.869999989867,4
15,74,52,50,TRUE,906.285000033677,5
15,75,52,50,FALSE,827.530000009574,4
15,76,54,50,TRUE,859.630000020843,5
15,77,50,54,TRUE,818.214999977499,5
15,78,50,52,FALSE,978.460000013001,5
15,79,50,54,FALSE,1290.63500004122,4
15,80,50,56,TRUE,994.249999988824,3
15,81,56,50,TRUE,1211.49999997579,5
15,82,50,54,TRUE,1035.20499996375,6
15,83,54,50,FALSE,1858.52499998873,4
15,84,56,50,FALSE,987.015000020619,5
15,85,58,50,TRUE,1018.37000000523,3
15,86,50,58,FALSE,1162.27999998955,1
15,87,60,50,FALSE,3553.2050000038,2
15,88,62,50,TRUE,1345.72499996284,5
15,89,62,50,TRUE,1938.56999999844,4
15,90,50,60,TRUE,898.719999997411,3
15,91,60,50,TRUE,1394.41499998793,3
15,92,58,50,FALSE,1026.59000002313,3
15,93,50,60,TRUE,882.429999997839,4
15,94,50,60,TRUE,930.365000036545,5
15,95,50,58,FALSE,1249.71500004176,3
15,96,50,60,TRUE,1258.34500003839,3
15,97,50,60,TRUE,1067.52499996219,5
15,98,58,50,TRUE,1234.49000000255,5
15,99,50,58,TRUE,906.545000034384,5
15,100,56,50,FALSE,1186.20999995619,5
15,101,50,58,TRUE,1018.54999997886,6
15,102,50,58,FALSE,1947.03999999911,2
15,103,60,50,TRUE,1122.02999996953,5
15,104,50,60,TRUE,1074.22499998938,5
15,105,58,50,TRUE,1099.08000001451,4
15,106,58,50,FALSE,987.224999989849,3
15,107,60,50,TRUE,1282.03499998199,2
15,108,60,50,TRUE,978.639999986626,5
15,109,58,50,TRUE,897.880000004079,4
15,110,58,50,FALSE,762.419999984559,4
15,111,60,50,TRUE,1257.86000001244,4
15,112,60,50,TRUE,1907.36999997171,5
15,113,50,58,TRUE,850.639999960549,6
15,114,58,50,TRUE,1050.11999997078,3
15,115,50,56,FALSE,802.620000031311,4
15,116,50,58,TRUE,795.08499999065,5
15,117,58,50,TRUE,1162.90999995545,4
15,118,56,50,FALSE,745.640000037383,5
15,119,58,50,TRUE,987.199999974109,4
15,120,50,58,TRUE,1907.10000001127,5
16,1,50,70,TRUE,5673.16999999821,1
16,2,70,50,TRUE,1639.95000000068,6
16,3,68,50,FALSE,4007.7850000016,4
16,4,70,50,TRUE,2641.99000000008,6
16,5,50,70,TRUE,1131.74000000072,6
16,6,50,68,TRUE,1809.44499999896,6
16,7,68,50,TRUE,804.265000002488,6
16,8,66,50,TRUE,4194.45500000074,3
16,9,66,50,FALSE,1218.61500000159,5
16,10,50,68,TRUE,1184.1600000007,6
16,11,68,50,TRUE,757.05999999991,6
16,12,50,66,TRUE,824.900000003254,6
16,13,50,66,TRUE,820.844999998371,6
16,14,50,64,TRUE,844.699999997829,6
16,15,50,64,TRUE,976.370000000315,6
16,16,50,62,TRUE,1715.17500000118,6
16,17,50,62,TRUE,1106.08000000138,6
16,18,60,50,TRUE,1228.50999999719,6
16,19,60,50,FALSE,2742.040000001,3
16,20,50,62,TRUE,1713.46000000267,5
16,21,62,50,TRUE,1792.50499999762,4
16,22,50,60,TRUE,1014.88999999856,5
16,23,60,50,TRUE,967.640000002575,6
16,24,50,58,TRUE,1519.49999999852,6
16,25,58,50,FALSE,1189.30999999793,6
16,26,60,50,TRUE,853.585000000749,6
16,27,60,50,TRUE,935.030000000552,6
16,28,50,58,FALSE,901.920000000246,6
16,29,60,50,FALSE,1873.42999999964,3
16,30,50,62,TRUE,1175.75500000021,6
16,31,50,62,TRUE,856.725000001461,6
16,32,50,60,FALSE,1193.30999999875,3
16,33,62,50,TRUE,957.619999997405,5
16,34,50,62,TRUE,923.940000000584,6
16,35,60,50,TRUE,838.694999998552,6
16,36,60,50,FALSE,973.989999998594,5
16,37,50,62,TRUE,940.000000002328,6
16,38,62,50,TRUE,1119.67999999979,5
16,39,50,60,TRUE,787.499999998545,6
16,40,60,50,FALSE,1020.09499999986,6
16,41,50,62,TRUE,2551.56500000157,3
16,42,50,62,TRUE,1616.3149999993,5
16,43,50,60,FALSE,816.470000001573,4
16,44,62,50,FALSE,2066.46999999793,4
16,45,64,50,TRUE,4565.42499999705,4
16,46,64,50,TRUE,1257.90000000052,6
16,47,50,62,TRUE,779.034999999567,6
16,48,50,62,TRUE,1113.14000000129,6
16,49,60,50,TRUE,2131.6450000013,2
16,50,60,50,FALSE,2233.92500000045,3
16,51,50,62,TRUE,2369.73500000022,5
16,52,50,62,TRUE,867.894999999407,5
16,53,50,60,TRUE,970.694999999978,6
16,54,60,50,TRUE,772.339999999531,6
16,55,58,50,TRUE,821.374999999534,6
16,56,50,58,FALSE,940.640000000712,6
16,57,50,60,FALSE,1147.46999999988,6
16,58,62,50,TRUE,1371.04999999792,6
16,59,62,50,TRUE,1327.62499999808,6
16,60,50,60,TRUE,3771.16999999998,4
16,61,50,60,TRUE,965.065000000322,5
16,62,58,50,TRUE,861.580000000686,6
16,63,50,58,TRUE,1135.03999999739,6
16,64,56,50,FALSE,1649.71499999956,4
16,65,58,50,FALSE,972.294999999576,6
16,66,60,50,TRUE,860.974999999598,6
16,67,50,60,FALSE,1413.0699999987,4
16,68,62,50,TRUE,975.054999998974,6
16,69,62,50,TRUE,1331.19499999884,5
16,70,60,50,FALSE,1000.96499999927,5
16,71,62,50,FALSE,1838.5500000004,5
16,72,64,50,TRUE,1232.25499999899,5
16,73,50,64,TRUE,955.689999998867,5
16,74,50,62,TRUE,947.495000000345,6
16,75,62,50,TRUE,645.229999998264,6
16,76,50,60,FALSE,3468.94999999859,2
16,77,62,50,TRUE,938.145000000077,6
16,78,50,62,TRUE,801.125000001775,6
16,79,50,60,TRUE,890.60999999856,6
16,80,60,50,FALSE,781.815000002098,6
16,81,62,50,TRUE,764.480000001611,6
16,82,62,50,FALSE,1663.01000000024,4
16,83,64,50,TRUE,1008.60500000266,6
16,84,64,50,TRUE,1102.1149999979,5
16,85,50,62,TRUE,798.995000000985,6
16,86,62,50,TRUE,764.194999999774,6
16,87,60,50,FALSE,1270.5449999994,3
16,88,62,50,FALSE,1405.13999999891,4
16,89,64,50,TRUE,822.555000002438,6
16,90,64,50,TRUE,845.66999999882,6
16,91,50,62,TRUE,1034.20499999996,6
16,92,50,62,FALSE,838.550000000396,6
16,93,64,50,TRUE,808.404999999795,6
16,94,50,64,TRUE,812.119999998715,6
16,95,62,50,TRUE,1494.2550000014,3
16,96,62,50,FALSE,1753.68499999971,3
16,97,64,50,TRUE,871.924999999464,4
16,98,64,50,TRUE,1278.3500000005,6
16,99,62,50,TRUE,1722.74499999912,5
16,100,50,62,TRUE,1323.14000000036,3
16,101,60,50,TRUE,1558.43500000268,1
16,102,60,50,TRUE,1146.10999999789,2
16,103,58,50,TRUE,1823.18999999913,3
16,104,50,58,TRUE,1336.4550000006,3
16,105,50,56,TRUE,1832.94499999832,3
16,106,50,56,TRUE,1069.89500000054,3
16,107,54,50,FALSE,1028.97999999911,3
16,108,56,50,TRUE,1684.81500000053,3
16,109,50,56,TRUE,1066.75499999983,3
16,110,54,50,TRUE,779.749999997846,5
16,111,50,54,TRUE,1051.10000000056,4
16,112,52,50,FALSE,823.87000000017,4
16,113,50,54,TRUE,1044.31499999913,5
16,114,50,54,FALSE,3253.23999999819,5
16,115,50,56,TRUE,874.335000000428,5
16,116,50,56,TRUE,818.240000000515,6
16,117,54,50,FALSE,1709.11999999953,6
16,118,50,56,TRUE,927.070000001579,6
16,119,50,56,TRUE,986.075000000652,6
16,120,54,50,FALSE,984.420000000624,6
17,1,70,50,FALSE,2588.99499999825,3
17,2,72,50,TRUE,1659.24999999697,5
17,3,72,50,TRUE,2230.21500000323,2
17,4,70,50,FALSE,3352.84500000125,2
17,5,72,50,TRUE,2402.37999999954,2
17,6,72,50,FALSE,2084.74999999453,3
17,7,50,74,TRUE,918.16000000108,6
17,8,50,74,TRUE,1267.61999999871,6
17,9,50,72,TRUE,1148.2149999938,5
17,10,72,50,TRUE,1768.81500000309,4
17,11,50,70,TRUE,898.7599999964,6
17,12,50,70,TRUE,1089.18999999878,5
17,13,68,50,TRUE,1693.48999999056,2
17,14,50,68,TRUE,1246.16999999853,6
17,15,66,50,TRUE,3223.11499998614,2
17,16,66,50,TRUE,1480.6649999955,3
17,17,50,64,TRUE,1040.79999998794,6
17,18,64,50,FALSE,2207.97500001208,1
17,19,66,50,FALSE,1330.28999999806,2
17,20,68,50,TRUE,2840.01499999431,1
17,21,68,50,TRUE,1481.38499999186,2
17,22,50,66,TRUE,979.294999997364,5
17,23,50,66,TRUE,1164.47999999218,5
17,24,64,50,TRUE,3921.76500000642,2
17,25,64,50,FALSE,1859.21500000404,2
17,26,66,50,TRUE,2524.92999999959,2
17,27,66,50,TRUE,3345.60000000056,2
17,28,50,64,TRUE,1003.9250000118,4
17,29,64,50,FALSE,1371.09000000055,3
17,30,50,66,TRUE,1292.03500000585,5
17,31,50,66,TRUE,1438.51500000164,2
17,32,64,50,TRUE,1241.58500001067,2
17,33,64,50,FALSE,1813.34000000788,2
17,34,66,50,FALSE,1767.82000000821,2
17,35,68,50,TRUE,1407.05999999773,2
17,36,50,68,TRUE,1223.97500000079,4
17,37,50,66,TRUE,1266.66999999725,6
17,38,66,50,TRUE,1040.2449999965,4
17,39,50,64,TRUE,1122.4499999953,5
17,40,50,64,TRUE,1306.94999999832,4
17,41,62,50,TRUE,1276.25500000431,4
17,42,62,50,FALSE,1263.72000000265,4
17,43,50,64,TRUE,1421.57000000589,4
17,44,50,64,TRUE,2526.29000000888,4
17,45,62,50,TRUE,2058.13499999931,3
17,46,50,62,TRUE,1368.82999999216,3
17,47,60,50,TRUE,1252.80000000203,3
17,48,50,60,TRUE,1262.66999999643,4
17,49,50,58,TRUE,1126.48500000068,5
17,50,58,50,TRUE,1647.50500000082,1
17,51,50,56,TRUE,2329.79000000341,2
17,52,56,50,FALSE,2960.46499999647,2
17,53,58,50,FALSE,1409.92499999993,2
17,54,50,60,TRUE,2139.56000001053,3
17,55,50,60,TRUE,2623.00000000687,2
17,56,58,50,TRUE,4469.47999999975,2
17,57,58,50,TRUE,2019.14499999839,2
17,58,56,50,TRUE,1193.94000001193,2
17,59,50,56,TRUE,939.939999996568,3
17,60,50,54,TRUE,1290.70500000671,3
17,61,50,54,TRUE,1432.86499999522,4
17,62,50,52,TRUE,1157.89000000223,4
17,63,50,52,TRUE,1451.63999999932,3
17,64,52,50,FALSE,1316.83000001067,3
17,65,54,50,FALSE,2711.8899999914,2
17,66,56,50,FALSE,2110.37500000384,2
17,67,50,58,TRUE,1290.88500000944,3
17,68,58,50,TRUE,3434.20999999216,2
17,69,56,50,TRUE,1250.93500000366,2
17,70,50,56,TRUE,1125.63000000955,3
17,71,54,50,FALSE,1469.53000000212,3
17,72,56,50,FALSE,1602.36000000441,3
17,73,58,50,FALSE,1458.21500000602,2
17,74,60,50,TRUE,2098.95499999402,2
17,75,50,60,TRUE,1264.53500000935,2
17,76,58,50,FALSE,1489.06999999599,2
17,77,60,50,TRUE,2675.74500000046,2
17,78,50,60,TRUE,1136.55999999901,3
17,79,58,50,TRUE,1100.0950000016,3
17,80,50,58,TRUE,1578.62999998906,4
17,81,56,50,TRUE,1849.24500000488,3
17,82,56,50,TRUE,4104.44500000449,2
17,83,54,50,FALSE,2182.20499999006,2
17,84,50,56,TRUE,1046.68500000844,3
17,85,50,56,TRUE,1258.87999999395,3
17,86,50,54,TRUE,1367.59500000335,3
17,87,54,50,FALSE,1705.40500000061,2
17,88,56,50,TRUE,1680.83999998635,2
17,89,50,56,TRUE,1275.44499999203,2
17,90,50,54,TRUE,1304.63499999314,3
17,91,54,50,TRUE,1360.64499999338,3
17,92,52,50,FALSE,1063.02000000142,4
17,93,50,54,TRUE,1526.23999999196,3
17,94,54,50,TRUE,1263.57000001008,3
17,95,52,50,FALSE,3743.09999999241,3
17,96,50,54,TRUE,1039.77499999746,4
17,97,50,54,TRUE,1357.55499999505,3
17,98,52,50,TRUE,1004.53500000003,3
17,99,50,52,TRUE,958.794999998645,4
17,100,50,52,TRUE,1297.82000000705,3
17,101,50,52,TRUE,1171.17999999027,3
17,102,52,50,TRUE,1717.15000001132,2
17,103,50,52,TRUE,961.985000001732,4
17,104,52,50,TRUE,2170.99499999313,3
17,105,50,52,TRUE,1101.67499999807,3
17,106,52,50,FALSE,1914.31500000181,2
17,107,50,54,TRUE,1363.20500000147,2
17,108,50,54,TRUE,1166.04000001098,3
17,109,50,52,FALSE,1860.98499999207,1
17,110,50,54,TRUE,1976.11499999766,1
17,111,54,50,TRUE,2093.9650000073,1
17,112,50,52,TRUE,1812.40499998967,1
17,113,52,50,FALSE,1250.67500000296,1
17,114,54,50,FALSE,1935.97500000033,1
17,115,50,56,TRUE,1123.34499999997,2
17,116,56,50,FALSE,1612.57499999192,2
17,117,50,58,TRUE,2533.99999999965,2
17,118,58,50,TRUE,2240.84500000754,2
17,119,56,50,FALSE,2146.74000001105,1
17,120,58,50,TRUE,1721.15500000655,1
18,1,50,70,TRUE,1606.87499999767,2
18,2,70,50,TRUE,1242.08500000532,3
18,3,68,50,TRUE,1585.29000000271,2
18,4,68,50,TRUE,1589.86000000004,3
18,5,50,66,TRUE,939.255000004778,5
18,6,50,66,TRUE,1962.49499999976,2
18,7,64,50,TRUE,1271.44499999849,3
18,8,50,64,TRUE,1010.18499999918,5
18,9,62,50,TRUE,927.389999997104,2
18,10,62,50,FALSE,1821.23000000138,3
18,11,64,50,TRUE,1088.85500000179,3
18,12,64,50,TRUE,1169.8699999979,4
18,13,50,62,FALSE,1931.64499999693,2
18,14,64,50,TRUE,955.785000005562,4
18,15,50,64,TRUE,976.705000000948,5
18,16,62,50,TRUE,947.430000000168,3
18,17,50,62,TRUE,836.755000003905,4
18,18,60,50,TRUE,1246.07000000105,2
18,19,50,60,TRUE,1258.9650000009,3
18,20,50,58,TRUE,1569.63499999983,3
18,21,50,58,TRUE,985.420000004524,3
18,22,56,50,TRUE,1370.01500000042,2
18,23,50,56,TRUE,898.000000001048,4
18,24,50,54,TRUE,923.385000001872,4
18,25,50,54,TRUE,870.934999999008,3
18,26,52,50,FALSE,1273.50000000297,3
18,27,54,50,FALSE,1408.45999999874,3
18,28,50,56,TRUE,927.204999999958,4
18,29,50,56,TRUE,998.209999997925,3
18,30,50,54,FALSE,1201.80000000255,2
18,31,56,50,FALSE,1045.7150000002,3
18,32,58,50,TRUE,840.299999996205,5
18,33,50,58,TRUE,986.460000000079,3
18,34,50,56,TRUE,1159.10500000609,3
18,35,56,50,TRUE,950.385000003735,3
18,36,50,54,FALSE,1749.24000000465,2
18,37,56,50,TRUE,2092.44500000204,1
18,38,56,50,TRUE,1104.66499999893,3
18,39,54,50,TRUE,1060.54999999469,2
18,40,50,54,TRUE,1086.05499999976,2
18,41,50,52,FALSE,1145.46500000142,3
18,42,54,50,FALSE,927.664999995613,4
18,43,56,50,TRUE,1346.9150000019,4
18,44,56,50,TRUE,1606.11999999674,2
18,45,54,50,TRUE,988.624999998137,3
18,46,54,50,TRUE,1077.98999999795,2
18,47,52,50,FALSE,879.430000000866,3
18,48,50,54,TRUE,1349.77999999683,2
18,49,54,50,FALSE,1342.60999999969,2
18,50,56,50,TRUE,1220.82000000228,1
18,51,50,56,TRUE,834.944999995059,5
18,52,50,54,TRUE,1836.13999999943,2
18,53,54,50,FALSE,1298.75999999786,2
18,54,56,50,TRUE,851.64999999688,3
18,55,50,56,TRUE,813.695000004373,2
18,56,54,50,TRUE,1204.52499999374,3
18,57,54,50,FALSE,1020.70500000264,3
18,58,50,56,TRUE,962.79499999946,3
18,59,50,56,TRUE,984.035000001313,3
18,60,50,54,FALSE,1407.03499999654,3
18,61,56,50,FALSE,919.984999993176,4
18,62,50,58,TRUE,1016.68499999505,2
18,63,58,50,TRUE,1293.61000000063,3
18,64,56,50,TRUE,1239.73499999556,2
18,65,50,56,TRUE,753.744999994524,4
18,66,54,50,TRUE,1167.41000000184,3
18,67,50,54,TRUE,817.040000001725,4
18,68,52,50,FALSE,863.564999999653,2
18,69,50,54,TRUE,794.159999997646,5
18,70,54,50,FALSE,1489.80000000302,2
18,71,56,50,TRUE,876.304999997956,3
18,72,56,50,TRUE,1143.30000000336,3
18,73,50,54,TRUE,895.120000001043,3
18,74,54,50,TRUE,1523.29499999905,2
18,75,50,52,TRUE,824.000000000524,3
18,76,50,52,FALSE,969.850000001315,2
18,77,54,50,TRUE,901.395000000775,5
18,78,54,50,FALSE,998.275000005378,3
18,79,56,50,TRUE,890.565000001516,3
18,80,56,50,TRUE,829.250000002503,3
18,81,50,54,TRUE,906.199999997625,2
18,82,54,50,TRUE,877.670000001672,3
18,83,50,52,TRUE,1121.67500000214,3
18,84,50,52,TRUE,1297.01500000374,2
18,85,52,50,FALSE,875.03999999899,3
18,86,54,50,FALSE,858.365000000049,2
18,87,56,50,TRUE,856.935000003432,3
18,88,56,50,TRUE,880.010000000766,4
18,89,50,54,FALSE,1792.5649999961,3
18,90,56,50,FALSE,1199.24000000174,2
18,91,58,50,TRUE,941.384999998263,2
18,92,58,50,TRUE,1062.26500000048,2
18,93,50,56,FALSE,1016.08999999735,1
18,94,50,58,TRUE,886.944999998377,3
18,95,50,58,TRUE,1052.64499999612,2
18,96,56,50,FALSE,815.060000000813,2
18,97,50,58,TRUE,1386.59500000358,1
18,98,58,50,TRUE,859.824999999546,2
18,99,56,50,FALSE,1028.78500000224,3
18,100,58,50,FALSE,1164.9350000007,2
18,101,60,50,TRUE,899.67500000057,3
18,102,50,60,TRUE,1113.77000000357,4
18,103,58,50,TRUE,1686.47000000055,2
18,104,58,50,FALSE,1426.95999999705,1
18,105,50,60,TRUE,859.539999997651,3
18,106,60,50,TRUE,891.524999999092,3
18,107,58,50,TRUE,806.400000001304,5
18,108,50,58,FALSE,1241.3149999993,2
18,109,60,50,FALSE,1107.935,2
18,110,62,50,TRUE,1255.57999999728,3
18,111,62,50,FALSE,951.885000002221,3
18,112,64,50,TRUE,1240.58499999956,2
18,113,64,50,TRUE,831.099999995786,3
18,114,50,62,TRUE,990.259999998671,3
18,115,50,62,TRUE,748.415000001842,5
18,116,60,50,TRUE,980.360000001383,3
18,117,60,50,FALSE,1016.92000000185,3
18,118,62,50,TRUE,1205.00000000175,2
18,119,50,62,TRUE,879.334999997809,3
18,120,50,60,TRUE,737.690000001749,3
19,1,70,50,TRUE,1191.47499999963,5
19,2,50,70,TRUE,976.085000031162,6
19,3,50,68,TRUE,1940.65499998396,3
19,4,50,68,TRUE,919.185000006109,6
19,5,66,50,TRUE,1155.13999998802,6
19,6,50,66,TRUE,1109.90999999922,5
19,7,64,50,TRUE,2393.46500003012,5
19,8,50,64,TRUE,1330.55999997305,5
19,9,50,62,TRUE,2718.99000002304,3
19,10,62,50,TRUE,1073.93000001321,4
19,11,50,60,TRUE,3883.88999999734,2
19,12,50,60,TRUE,1324.17999999598,4
19,13,50,58,FALSE,2757.44499999564,1
19,14,60,50,TRUE,975.0800000038,5
19,15,50,60,TRUE,1374.95500000659,5
19,16,50,58,FALSE,2825.62000001781,2
19,17,50,60,TRUE,1424.39499998,2
19,18,50,60,TRUE,1579.44000000134,3
19,19,58,50,TRUE,1499.01999998838,4
19,20,58,50,TRUE,2523.48999999231,1
19,21,50,56,TRUE,2753.5650000209,2
19,22,50,56,TRUE,1209.74000002025,3
19,23,50,54,FALSE,1797.95499995816,2
19,24,50,56,TRUE,1169.87500002142,4
19,25,50,56,TRUE,1408.79499999573,4
19,26,54,50,TRUE,1334.97999998508,4
19,27,54,50,TRUE,1125.14499999816,4
19,28,52,50,TRUE,1106.31000000285,4
19,29,50,52,FALSE,1644.78499995312,2
19,30,50,54,TRUE,2494.39500004519,1
19,31,54,50,TRUE,1145.30500001274,4
19,32,52,50,TRUE,1201.67500001844,4
19,33,50,52,TRUE,1572.21499999287,3
19,34,50,52,TRUE,6457.3499999824,2
19,35,50,52,TRUE,1245.73999998393,5
19,36,52,50,TRUE,1606.40499996953,4
19,37,50,52,FALSE,1471.20999998879,3
19,38,54,50,FALSE,3484.04000001028,1
19,39,50,56,TRUE,2917.82500001136,1
19,40,56,50,TRUE,1351.69500001939,3
19,41,50,54,TRUE,1049.75999996532,5
19,42,54,50,TRUE,2676.30499997176,3
19,43,52,50,TRUE,1172.80000000028,4
19,44,50,52,TRUE,1161.65500000352,4
19,45,52,50,TRUE,970.620000036433,6
19,46,50,52,FALSE,4183.37000004249,2
19,47,50,54,TRUE,2009.0649999911,3
19,48,54,50,TRUE,1085.92999994289,4
19,49,52,50,FALSE,1118.51999995997,3
19,50,50,54,FALSE,7265.99500002339,3
19,51,50,56,TRUE,1957.44500000728,4
19,52,56,50,TRUE,1064.19500004267,5
19,53,50,54,TRUE,2051.65000003763,2
19,54,50,54,FALSE,1130.67499996396,4
19,55,50,56,FALSE,1833.63499998813,1
19,56,50,58,FALSE,3298.67500002729,2
19,57,60,50,TRUE,1166.77000001073,2
19,58,60,50,TRUE,1031.68499999447,5
19,59,50,58,TRUE,1142.00499997241,6
19,60,50,58,FALSE,1433.14500001725,5
19,61,50,60,TRUE,987.704999977723,5
19,62,50,60,TRUE,2514.52999998583,4
19,63,58,50,TRUE,1808.85000003036,3
19,64,58,50,TRUE,1066.28499994986,5
19,65,50,56,TRUE,2128.395000007,2
19,66,56,50,TRUE,1106.73500003759,5
19,67,50,54,FALSE,1712.48499996727,4
19,68,56,50,TRUE,1032.48999995412,6
19,69,50,56,TRUE,1764.46999999462,3
19,70,54,50,TRUE,974.264999968,5
19,71,50,54,FALSE,1044.3699999596,5
19,72,56,50,TRUE,930.400000012014,5
19,73,56,50,TRUE,1394.72000004025,6
19,74,54,50,TRUE,1137.19999999739,6
19,75,50,54,TRUE,1776.92500001285,3
19,76,52,50,TRUE,1013.80000001518,6
19,77,52,50,FALSE,1560.59000000823,3
19,78,54,50,TRUE,1570.16000000294,4
19,79,54,50,TRUE,912.76499995729,5
19,80,52,50,TRUE,2264.30999999866,2
19,81,50,52,FALSE,1166.18000000017,5
19,82,54,50,TRUE,910.56499996921,5
19,83,50,54,FALSE,1370.67499995464,4
19,84,50,56,FALSE,2583.74999999069,2
19,85,50,58,TRUE,2074.68000001973,1
19,86,58,50,TRUE,1031.40999999596,5
19,87,50,56,FALSE,996.189999976195,5
19,88,50,58,TRUE,2637.72499997867,6
19,89,58,50,TRUE,826.314999954775,6
19,90,50,56,FALSE,4687.55999999121,1
19,91,50,58,TRUE,1414.97500002151,3
19,92,58,50,TRUE,1672.79500002041,3
19,93,56,50,FALSE,1030.48499999568,3
19,94,50,58,TRUE,897.549999994226,5
19,95,58,50,TRUE,1110.69500003941,6
19,96,50,56,TRUE,2128.65000002785,3
19,97,56,50,TRUE,811.905000009574,6
19,98,54,50,TRUE,1210.20999999018,1
19,99,50,54,TRUE,1277.81500003766,3
19,100,50,52,TRUE,1672.04999999376,1
19,101,52,50,TRUE,920.399999944493,5
19,102,52,50,FALSE,1817.26000003982,1
19,103,50,54,FALSE,2061.15999998292,1
19,104,56,50,TRUE,912.844999984372,4
19,105,50,56,TRUE,1062.10999999894,4
19,106,50,54,TRUE,1186.84499996016,4
19,107,50,54,FALSE,2223.6050000065,2
19,108,50,56,FALSE,995.674999954645,4
19,109,50,58,TRUE,932.834999985062,6
19,110,58,50,TRUE,2951.84499997413,1
19,111,56,50,TRUE,1301.74000002444,1
19,112,50,56,TRUE,1431.15999997826,4
19,113,54,50,TRUE,1039.59000000032,5
19,114,50,54,FALSE,1208.70999997715,4
19,115,56,50,TRUE,1549.37000002246,5
19,116,50,56,FALSE,1619.66999998549,2
19,117,50,58,TRUE,1199.33999999193,4
19,118,50,58,TRUE,897.700000030454,5
19,119,56,50,TRUE,996.050000016112,5
19,120,56,50,TRUE,1017.7150000236,6
20,1,70,50,TRUE,1850.17499999958,5
20,2,50,70,TRUE,707.999999998719,5
20,3,50,68,TRUE,520.795000004,6
20,4,50,68,TRUE,2542.11500000383,5
20,5,66,50,TRUE,633.609999997134,5
20,6,50,66,TRUE,2287.02000000339,6
20,7,64,50,TRUE,1182.2650000031,3
20,8,64,50,TRUE,661.855000005744,3
20,9,62,50,FALSE,1410.5899999995,3
20,10,64,50,TRUE,1172.60499999975,2
20,11,64,50,TRUE,828.489999999874,5
20,12,50,62,TRUE,549.099999996542,2
20,13,62,50,FALSE,548.8800000021,2
20,14,50,64,TRUE,636.035000003176,5
20,15,64,50,TRUE,1287.93000000587,4
20,16,62,50,TRUE,1442.68000000011,3
20,17,50,62,TRUE,1136.78999999684,5
20,18,60,50,TRUE,782.364999999118,1
20,19,60,50,TRUE,924.899999998161,4
20,20,50,58,TRUE,760.55500000075,2
20,21,58,50,TRUE,582.009999998263,3
20,22,50,56,TRUE,1222.73999999743,3
20,23,50,56,TRUE,826.750000000175,5
20,24,50,54,TRUE,867.644999998447,2
20,25,50,54,TRUE,1278.90999999363,1
20,26,50,52,TRUE,1002.16499999806,3
20,27,50,52,TRUE,995.184999999765,3
20,28,52,50,FALSE,894.9500000017,3
20,29,50,54,TRUE,972.759999996924,5
20,30,54,50,FALSE,1222.08500000124,2
20,31,56,50,FALSE,768.219999998109,3
20,32,50,58,TRUE,725.404999997409,2
20,33,58,50,FALSE,893.039999995381,4
20,34,60,50,TRUE,1316.61499999609,3
20,35,50,60,TRUE,937.554999996792,4
20,36,58,50,TRUE,876.270000000659,5
20,37,50,58,TRUE,890.274999997928,5
20,38,50,56,TRUE,848.565000000235,4
20,39,50,56,TRUE,1445.05999999819,5
20,40,50,54,TRUE,777.349999996659,6
20,41,50,54,TRUE,1229.04999999446,4
20,42,52,50,FALSE,5563.47500000265,2
20,43,54,50,TRUE,1456.92000000417,2
20,44,50,54,TRUE,1005.69499999983,4
20,45,52,50,TRUE,1463.80000000499,3
20,46,52,50,TRUE,1549.28500000096,3
20,47,52,50,TRUE,1140.15999999538,5
20,48,50,52,TRUE,785.940000001574,6
20,49,50,52,TRUE,1048.01500000031,6
20,50,52,50,TRUE,1268.28499999829,5
20,51,52,50,FALSE,2004.0599999993,1
20,52,54,50,TRUE,1018.1600000069,4
20,53,50,54,TRUE,1554.29499999445,6
20,54,52,50,TRUE,1124.41499999841,5
20,55,52,50,TRUE,731.944999999541,3
20,56,52,50,FALSE,782.845000001544,2
20,57,54,50,TRUE,783.110000003944,5
20,58,54,50,TRUE,1666.64999999921,1
20,59,52,50,TRUE,895.944999996573,1
20,60,50,52,TRUE,843.849999997474,1
20,61,50,52,FALSE,857.985000002373,3
20,62,50,54,FALSE,750.944999999774,3
20,63,50,56,TRUE,918.714999999793,5
20,64,50,56,FALSE,677.86999999953,1
20,65,58,50,TRUE,848.06500000559,2
20,66,50,58,TRUE,541.80500000075,6
20,67,56,50,TRUE,586.544999998296,5
20,68,50,56,TRUE,866.099999999278,6
20,69,50,54,TRUE,1300.48000000534,3
20,70,54,50,FALSE,598.319999997329,1
20,71,50,56,TRUE,682.164999998349,2
20,72,50,56,TRUE,631.729999993695,4
20,73,54,50,TRUE,773.460000003979,4
20,74,54,50,TRUE,1360.49999999523,5
20,75,50,52,FALSE,988.795000004757,5
20,76,54,50,FALSE,1050.77999999776,3
20,77,50,56,TRUE,655.424999997194,2
20,78,56,50,TRUE,1466.88500000164,4
20,79,54,50,FALSE,1018.58499999798,4
20,80,56,50,FALSE,909.695000002102,5
20,81,50,58,FALSE,931.670000005397,1
20,82,60,50,TRUE,1196.7799999984,4
20,83,60,50,TRUE,796.770000000834,5
20,84,50,58,TRUE,815.559999995457,4
20,85,58,50,TRUE,1349.12999999506,4
20,86,56,50,TRUE,762.354999998934,5
20,87,56,50,TRUE,712.604999993346,4
20,88,50,54,FALSE,1533.51500000281,3
20,89,56,50,TRUE,623.869999995804,1
20,90,56,50,TRUE,1002.78000000253,1
20,91,54,50,TRUE,928.485000004002,3
20,92,50,54,FALSE,1052.66999999731,4
20,93,56,50,TRUE,860.404999999446,5
20,94,56,50,TRUE,859.120000000985,4
20,95,54,50,TRUE,993.989999995392,3
20,96,50,54,TRUE,680.035000004864,6
20,97,52,50,TRUE,1107.75499999727,3
20,98,52,50,TRUE,967.914999993809,3
20,99,50,52,TRUE,1357.37999999401,3
20,100,50,52,FALSE,901.755000006233,1
20,101,50,54,FALSE,822.999999996682,3
20,102,50,56,FALSE,846.559999998135,3
20,103,58,50,TRUE,810.245000000577,3
20,104,58,50,TRUE,783.694999998261,3
20,105,56,50,TRUE,790.670000002137,4
20,106,50,56,FALSE,1894.14500000566,4
20,107,50,58,FALSE,956.109999999171,2
20,108,60,50,TRUE,712.225000002945,4
20,109,60,50,TRUE,669.134999996459,4
20,110,58,50,TRUE,587.400000003981,4
20,111,58,50,TRUE,600.160000001779,3
20,112,50,56,TRUE,916.295000002719,3
20,113,50,56,FALSE,1827.49999999942,3
20,114,58,50,TRUE,733.789999998407,4
20,115,58,50,FALSE,1037.58499999822,3
20,116,50,60,TRUE,770.774999997229,4
20,117,50,60,TRUE,1430.33000000287,3
20,118,50,58,FALSE,816.604999999981,1
20,119,50,60,TRUE,643.739999999525,6
20,120,50,60,TRUE,640.785000003234,5
21,1,50,70,TRUE,832,4
21,2,70,50,TRUE,932,6
21,3,50,68,TRUE,985,6
21,4,50,68,TRUE,951,6
21,5,50,66,TRUE,770,6
21,6,66,50,TRUE,926,5
21,7,50,64,TRUE,1046,6
21,8,50,64,TRUE,908,6
21,9,50,62,TRUE,1104,4
21,10,50,62,TRUE,2006,3
21,11,50,60,TRUE,1099,3
21,12,50,60,TRUE,1476,1
21,13,58,50,TRUE,1734,5
21,14,50,58,TRUE,1167,6
21,15,56,50,TRUE,1641,2
21,16,50,56,TRUE,1545,3
21,17,54,50,TRUE,1331,3
21,18,54,50,TRUE,2385,1
21,19,52,50,TRUE,1032,5
21,20,52,50,FALSE,2158,3
21,21,50,54,TRUE,1213,3
21,22,54,50,FALSE,1897,4
21,23,50,56,TRUE,1222,4
21,24,50,56,FALSE,1511,2
21,25,58,50,FALSE,1714,6
21,26,60,50,TRUE,1998,2
21,27,60,50,TRUE,1774,2
21,28,50,58,TRUE,1400,5
21,29,50,58,TRUE,2291,1
21,30,50,56,TRUE,975,5
21,31,56,50,TRUE,1437,5
21,32,54,50,FALSE,2029,2
21,33,56,50,FALSE,1039,3
21,34,50,58,TRUE,1098,4
21,35,58,50,TRUE,1859,2
21,36,50,56,TRUE,1259,5
21,37,50,56,TRUE,1012,6
21,38,54,50,FALSE,1329,3
21,39,50,56,FALSE,1824,1
21,40,50,58,TRUE,928,2
21,41,50,58,TRUE,1062,5
21,42,56,50,TRUE,1308,6
21,43,50,56,TRUE,859,6
21,44,50,54,TRUE,975,5
21,45,50,54,TRUE,1502,2
21,46,52,50,FALSE,890,3
21,47,54,50,TRUE,1034,5
21,48,54,50,FALSE,1282,4
21,49,50,56,TRUE,1571,5
21,50,56,50,FALSE,1922,2
21,51,58,50,TRUE,1006,5
21,52,50,58,TRUE,1343,3
21,53,56,50,FALSE,2716,1
21,54,50,58,TRUE,1291,3
21,55,50,58,TRUE,1267,3
21,56,56,50,FALSE,981,4
21,57,58,50,TRUE,1092,5
21,58,58,50,TRUE,1471,4
21,59,50,56,TRUE,893,3
21,60,50,56,FALSE,1600,2
21,61,58,50,FALSE,1405,4
21,62,60,50,TRUE,1303,3
21,63,60,50,TRUE,1060,5
21,64,50,58,TRUE,997,4
21,65,58,50,TRUE,1129,5
21,66,50,56,TRUE,1158,6
21,67,50,56,TRUE,2383,6
21,68,54,50,TRUE,1400,3
21,69,54,50,FALSE,1531,4
21,70,56,50,TRUE,1037,5
21,71,56,50,TRUE,1347,3
21,72,54,50,TRUE,1402,3
21,73,54,50,TRUE,3331,1
21,74,52,50,FALSE,2418,1
21,75,54,50,TRUE,1085,6
21,76,54,50,TRUE,1553,3
21,77,50,52,FALSE,2120,3
21,78,54,50,FALSE,1096,4
21,79,50,56,TRUE,1357,5
21,80,56,50,TRUE,2662,3
21,81,50,54,TRUE,963,5
21,82,54,50,TRUE,2063,2
21,83,52,50,FALSE,1102,4
21,84,54,50,FALSE,1684,3
21,85,56,50,TRUE,1453,4
21,86,56,50,TRUE,1311,6
21,87,54,50,FALSE,1057,6
21,88,56,50,TRUE,1831,3
21,89,50,56,TRUE,969,6
21,90,50,54,TRUE,853,4
21,91,54,50,TRUE,1174,3
21,92,52,50,FALSE,1227,6
21,93,54,50,TRUE,1286,4
21,94,54,50,TRUE,2127,3
21,95,50,52,TRUE,1434,2
21,96,52,50,FALSE,1089,6
21,97,54,50,FALSE,836,6
21,98,56,50,TRUE,1303,3
21,99,50,56,TRUE,1009,5
21,100,54,50,FALSE,1743,2
21,101,56,50,TRUE,1337,5
21,102,56,50,TRUE,1915,4
21,103,54,50,FALSE,1110,2
21,104,50,56,TRUE,661,6
21,105,56,50,TRUE,1232,5
21,106,54,50,TRUE,1605,1
21,107,54,50,FALSE,1210,2
21,108,56,50,TRUE,1003,3
21,109,56,50,TRUE,1650,4
21,110,54,50,TRUE,2282,1
21,111,50,54,TRUE,1247,1
21,112,52,50,TRUE,1247,5
21,113,52,50,TRUE,1979,3
21,114,50,52,TRUE,947,5
21,115,50,52,TRUE,1372,5
21,116,50,52,TRUE,1000,6
21,117,52,50,TRUE,1518,6
21,118,52,50,FALSE,1070,6
21,119,54,50,TRUE,1012,6
21,120,54,50,TRUE,2279,2
22,1,70,50,TRUE,4178.37499999951,1
22,2,70,50,TRUE,2910.13999999996,3
22,3,50,68,TRUE,2061.24499999714,3
22,4,68,50,TRUE,1402.224999998,4
22,5,66,50,TRUE,5429.37999999776,1
22,6,50,66,TRUE,950.404999999591,4
22,7,64,50,TRUE,888.960000000225,5
22,8,64,50,TRUE,1057.09000000206,4
22,9,62,50,TRUE,889.4650000002,4
22,10,50,62,TRUE,910.780000001978,5
22,11,60,50,TRUE,1178.95499999941,3
22,12,50,60,FALSE,3434.3200000003,1
22,13,62,50,TRUE,843.544999999722,5
22,14,62,50,TRUE,1529.22499999841,2
22,15,60,50,FALSE,1432.40000000151,3
22,16,50,62,TRUE,1157.2500000002,3
22,17,50,62,FALSE,897.734999998647,2
22,18,50,64,TRUE,828.580000001239,4
22,19,64,50,TRUE,1176.46999999852,3
22,20,62,50,TRUE,1231.76999999851,4
22,21,62,50,FALSE,1441.73500000034,1
22,22,64,50,TRUE,882.400000002235,4
22,23,64,50,TRUE,829.905000002327,4
22,24,62,50,FALSE,984.599999999773,4
22,25,64,50,TRUE,1082.00000000215,1
22,26,64,50,TRUE,791.300000000774,3
22,27,62,50,FALSE,1009.9999999984,1
22,28,64,50,TRUE,845.43499999927,3
22,29,64,50,TRUE,1024.52500000072,3
22,30,62,50,TRUE,994.825000001583,3
22,31,50,62,FALSE,3709.0500000013,3
22,32,64,50,TRUE,3017.3649999997,1
22,33,64,50,TRUE,891.2049999999,1
22,34,62,50,TRUE,1397.32999999978,3
22,35,50,62,TRUE,1248.81499999901,3
22,36,60,50,TRUE,4047.23999999987,1
22,37,50,60,TRUE,771.010000000388,3
22,38,58,50,TRUE,1657.49999999753,3
22,39,58,50,TRUE,1220.16000000076,3
22,40,50,56,TRUE,1113.6800000022,3
22,41,56,50,TRUE,1109.31999999957,3
22,42,50,54,TRUE,1055.50500000027,2
22,43,54,50,TRUE,1046.155,2
22,44,50,52,TRUE,956.719999998313,3
22,45,52,50,TRUE,1030.61499999967,3
22,46,50,52,TRUE,895.155000001978,4
22,47,52,50,TRUE,1252.51000000208,2
22,48,50,52,FALSE,1237.64499999743,2
22,49,50,54,FALSE,1246.85499999759,3
22,50,56,50,FALSE,863.659999999072,3
22,51,50,58,FALSE,1148.9900000015,2
22,52,50,60,TRUE,935.884999998962,3
22,53,50,60,FALSE,1024.85000000161,3
22,54,62,50,TRUE,942.994999997609,2
22,55,62,50,TRUE,1102.18000000168,4
22,56,50,60,TRUE,848.405000000639,4
22,57,50,60,FALSE,1247.35499999952,4
22,58,50,62,TRUE,1033.09499999887,4
22,59,50,62,TRUE,1432.05000000307,2
22,60,50,60,FALSE,1910.92500000013,2
22,61,62,50,TRUE,1976.10999999961,1
22,62,62,50,FALSE,1239.26500000016,1
22,63,50,64,TRUE,2141.78000000175,1
22,64,50,64,TRUE,3504.65999999869,3
22,65,50,62,TRUE,1292.92500000156,3
22,66,62,50,TRUE,1173.65000000063,1
22,67,60,50,TRUE,163809.409999998,1
22,68,50,60,TRUE,830.245000001043,2
22,69,58,50,TRUE,1910.40500000236,2
22,70,58,50,TRUE,1078.89499999874,3
22,71,50,56,TRUE,902.710000002058,3
22,72,50,56,TRUE,927.410000000265,3
22,73,54,50,FALSE,724.880000001634,3
22,74,50,56,FALSE,1264.03000000207,3
22,75,50,58,TRUE,751.595000001485,3
22,76,58,50,TRUE,849.565000000468,3
22,77,56,50,FALSE,1056.59000000008,3
22,78,58,50,TRUE,868.279999998747,3
22,79,58,50,FALSE,775.044999998529,3
22,80,60,50,TRUE,848.420000002137,3
22,81,50,60,TRUE,814.170000001497,3
22,82,58,50,TRUE,874.124999998428,2
22,83,50,58,TRUE,861.134999999194,3
22,84,50,56,TRUE,885.229999999865,3
22,85,56,50,TRUE,1247.03500000038,3
22,86,54,50,FALSE,895.209999998799,1
22,87,50,56,TRUE,1519.79500000016,2
22,88,56,50,TRUE,898.325000001932,3
22,89,54,50,TRUE,1466.73999999982,3
22,90,54,50,TRUE,7864.58499999938,1
22,91,52,50,TRUE,940.215000002296,3
22,92,50,52,FALSE,1080.93999999983,3
22,93,54,50,TRUE,846.349999999744,3
22,94,54,50,FALSE,928.354999999981,1
22,95,50,56,FALSE,999.264999998617,3
22,96,50,58,TRUE,1011.03000000142,3
22,97,50,58,FALSE,1604.4350000011,1
22,98,60,50,TRUE,707.669999999751,3
22,99,60,50,TRUE,704.195000002102,3
22,100,58,50,TRUE,932.055000001157,3
22,101,58,50,FALSE,943.090000000666,3
22,102,50,60,TRUE,862.114999999932,3
22,103,50,60,TRUE,780.655000002356,3
22,104,50,58,FALSE,785.925000000163,3
22,105,50,60,TRUE,902.464999999152,1
22,106,60,50,TRUE,871.835000001709,3
22,107,50,58,FALSE,1202.16000000073,3
22,108,50,60,TRUE,866.734999999637,3
22,109,50,60,TRUE,840.925000000396,3
22,110,58,50,TRUE,911.169999999343,3
22,111,58,50,TRUE,1101.47499999951,3
22,112,56,50,TRUE,825.630000002915,3
22,113,50,56,TRUE,746.10000000021,3
22,114,54,50,TRUE,884.910000000731,3
22,115,54,50,FALSE,2867.80000000005,3
22,116,50,56,FALSE,871.91999999783,3
22,117,50,58,TRUE,838.370000001276,3
22,118,58,50,TRUE,866.755000002799,4
22,119,56,50,TRUE,945.540000000619,4
22,120,56,50,TRUE,1141.59500000102,2
23,1,70,50,TRUE,2141.0249999899,1
23,2,70,50,TRUE,1716.11000000848,3
23,3,50,68,TRUE,818.620000005467,4
23,4,50,68,TRUE,917.190000007395,4
23,5,66,50,TRUE,556.420000008075,2
23,6,50,66,TRUE,1084.06500000274,2
23,7,64,50,TRUE,838.950000004843,3
23,8,64,50,FALSE,826.370000024326,3
23,9,50,66,TRUE,835.930000001099,3
23,10,50,66,TRUE,859.275000024354,3
23,11,64,50,TRUE,1059.03500001295,2
23,12,50,64,TRUE,824.945000000298,2
23,13,50,62,TRUE,1507.27999999071,2
23,14,62,50,TRUE,787.13000001153,2
23,15,50,60,TRUE,1013.68999999249,1
23,16,50,60,FALSE,1012.19999999739,1
23,17,50,62,FALSE,1651.92999999272,2
23,18,64,50,TRUE,985.629999981029,3
23,19,64,50,TRUE,885.73500001803,2
23,20,50,62,TRUE,840.109999990091,3
23,21,50,62,TRUE,3342.02500001993,1
23,22,60,50,TRUE,882.565000007162,3
23,23,50,60,TRUE,839.845000009518,2
23,24,58,50,TRUE,775.070000003325,4
23,25,50,58,TRUE,1071.09499999206,3
23,26,56,50,TRUE,823.284999991301,2
23,27,50,56,TRUE,849.725000007311,2
23,28,50,54,TRUE,927.499999990687,4
23,29,54,50,TRUE,770.069999998668,3
23,30,50,52,FALSE,938.584999996237,4
23,31,54,50,FALSE,825.929999991786,3
23,32,50,56,FALSE,585.774999985006,2
23,33,50,58,TRUE,802.595000015572,5
23,34,50,58,TRUE,1728.51499999524,1
23,35,56,50,TRUE,825.165000016568,3
23,36,56,50,TRUE,1026.53999999166,2
23,37,50,54,TRUE,786.859999992885,2
23,38,50,54,FALSE,751.940000016475,1
23,39,56,50,TRUE,638.160000002244,2
23,40,50,56,TRUE,669.189999985974,3
23,41,50,54,TRUE,1066.25999999233,3
23,42,54,50,TRUE,764.265000005253,4
23,43,50,52,FALSE,996.985000005225,3
23,44,54,50,FALSE,811.955000011949,1
23,45,50,56,FALSE,795.219999999972,3
23,46,58,50,TRUE,777.785000012955,3
23,47,50,58,TRUE,691.224999987753,1
23,48,56,50,TRUE,650.584999995772,2
23,49,50,56,TRUE,937.969999999041,1
23,50,54,50,FALSE,938.480000011623,2
23,51,56,50,TRUE,745.565000019269,2
23,52,56,50,TRUE,1450.89499998721,2
23,53,54,50,FALSE,954.050000000279,1
23,54,56,50,FALSE,849.310000019614,1
23,55,58,50,FALSE,818.18000000203,1
23,56,50,60,TRUE,841.814999992494,1
23,57,60,50,FALSE,1326.21500000823,2
23,58,62,50,TRUE,1008.45500000287,2
23,59,62,50,FALSE,765.270000003511,2
23,60,64,50,TRUE,720.174999994924,2
23,61,64,50,TRUE,2168.78500001621,2
23,62,62,50,FALSE,722.314999991795,2
23,63,64,50,FALSE,1096.93999998854,2
23,64,50,66,TRUE,648.805000004359,2
23,65,66,50,FALSE,1247.17499999679,1
23,66,50,68,TRUE,577.679999987595,3
23,67,50,68,TRUE,760.720000020228,3
23,68,66,50,FALSE,776.849999994738,3
23,69,68,50,TRUE,807.365000015125,2
23,70,68,50,TRUE,792.990000016289,3
23,71,66,50,FALSE,655.784999980824,3
23,72,50,68,FALSE,864.700000005541,1
23,73,50,70,TRUE,664.329999999609,2
23,74,70,50,TRUE,634.924999991199,4
23,75,50,68,TRUE,705.764999991516,5
23,76,50,68,FALSE,642.805000010412,1
23,77,70,50,TRUE,762.905000010505,3
23,78,70,50,FALSE,745.435000018915,1
23,79,72,50,TRUE,716.834999999264,4
23,80,72,50,TRUE,807.654999982333,4
23,81,70,50,TRUE,755.174999998417,4
23,82,70,50,TRUE,785.985000024084,6
23,83,68,50,TRUE,892.749999999069,3
23,84,68,50,TRUE,852.604999992764,5
23,85,66,50,TRUE,755.969999998342,5
23,86,50,66,FALSE,1081.59499999601,2
23,87,68,50,TRUE,819.044999981998,2
23,88,68,50,TRUE,736.960000009276,4
23,89,50,66,TRUE,513.670000014827,1
23,90,66,50,TRUE,706.51000001817,1
23,91,64,50,TRUE,761.020000005374,4
23,92,50,64,TRUE,796.904999995604,3
23,93,50,62,TRUE,747.314999985974,3
23,94,50,62,FALSE,779.429999995045,1
23,95,64,50,TRUE,786.315000004834,1
23,96,64,50,TRUE,919.620000000577,1
23,97,62,50,TRUE,667.959999991581,3
23,98,62,50,TRUE,642.67000000109,1
23,99,60,50,TRUE,717.715000006137,3
23,100,60,50,TRUE,836.455000011483,1
23,101,58,50,TRUE,1068.09000001522,2
23,102,50,58,TRUE,820.724999997765,3
23,103,56,50,TRUE,636.625000013737,1
23,104,56,50,FALSE,763.199999986682,4
23,105,50,58,TRUE,609.934999985853,1
23,106,58,50,TRUE,595.605000009527,1
23,107,56,50,TRUE,691.800000000512,4
23,108,50,56,FALSE,690.854999993462,4
23,109,50,58,TRUE,1986.96500001824,1
23,110,50,58,FALSE,650.840000016615,3
23,111,50,60,FALSE,810.564999992494,1
23,112,50,62,TRUE,528.579999983776,1
23,113,62,50,TRUE,562.480000022333,1
23,114,60,50,TRUE,619.334999995772,1
23,115,60,50,TRUE,723.830000002636,1
23,116,50,58,TRUE,1099.2649999971,1
23,117,58,50,TRUE,979.674999980489,3
23,118,50,56,TRUE,731.644999992568,1
23,119,50,56,FALSE,691.005000000587,1
23,120,58,50,FALSE,1588.18500000052,1
24,1,50,70,TRUE,6406,6
24,2,70,50,TRUE,1879,3
24,3,68,50,TRUE,1901,1
24,4,68,50,TRUE,906,6
24,5,50,66,TRUE,1212,4
24,6,66,50,TRUE,968,2
24,7,50,64,TRUE,1197,4
24,8,50,64,TRUE,1028,5
24,9,50,62,TRUE,889,3
24,10,50,62,TRUE,588,6
24,11,60,50,TRUE,968,3
24,12,60,50,TRUE,1303,1
24,13,50,58,FALSE,1164,1
24,14,50,60,TRUE,1038,4
24,15,60,50,TRUE,833,2
24,16,58,50,TRUE,1469,1
24,17,58,50,TRUE,1046,1
24,18,56,50,FALSE,1322,2
24,19,58,50,TRUE,823,3
24,20,58,50,TRUE,990,3
24,21,50,56,TRUE,939,6
24,22,56,50,TRUE,940,6
24,23,50,54,TRUE,807,6
24,24,54,50,FALSE,1297,1
24,25,56,50,TRUE,858,4
24,26,50,56,FALSE,917,4
24,27,50,58,FALSE,7168,3
24,28,60,50,FALSE,1404,1
24,29,62,50,TRUE,819,2
24,30,50,62,TRUE,1162,3
24,31,50,60,FALSE,937,2
24,32,62,50,TRUE,919,1
24,33,50,62,TRUE,1030,3
24,34,60,50,TRUE,853,2
24,35,50,60,FALSE,2680,2
24,36,50,62,TRUE,777,4
24,37,62,50,TRUE,653,1
24,38,50,60,FALSE,885,1
24,39,50,62,TRUE,864,1
24,40,50,62,TRUE,768,6
24,41,60,50,TRUE,722,6
24,42,60,50,TRUE,795,6
24,43,50,58,TRUE,522,6
24,44,50,58,TRUE,548,6
24,45,50,56,FALSE,9949,1
24,46,50,58,TRUE,1204,1
24,47,50,58,TRUE,1482,6
24,48,56,50,FALSE,820,2
24,49,58,50,TRUE,709,6
24,50,50,58,FALSE,1818,1
24,51,60,50,FALSE,825,2
24,52,50,62,FALSE,779,6
24,53,64,50,FALSE,774,1
24,54,50,66,TRUE,770,5
24,55,66,50,TRUE,878,6
24,56,64,50,FALSE,1036,1
24,57,50,66,TRUE,694,2
24,58,66,50,TRUE,782,3
24,59,64,50,TRUE,610,6
24,60,50,64,TRUE,856,1
24,61,62,50,TRUE,730,6
24,62,50,62,TRUE,627,6
24,63,50,60,TRUE,556,6
24,64,60,50,TRUE,740,6
24,65,58,50,TRUE,719,2
24,66,58,50,TRUE,862,2
24,67,50,56,TRUE,551,6
24,68,50,56,FALSE,773,1
24,69,50,58,FALSE,674,6
24,70,50,60,TRUE,906,2
24,71,60,50,TRUE,1476,1
24,72,50,58,FALSE,2142,1
24,73,50,60,TRUE,1051,1
24,74,50,60,TRUE,1334,1
24,75,58,50,TRUE,1063,1
24,76,50,58,TRUE,1107,1
24,77,56,50,TRUE,601,1
24,78,56,50,TRUE,1245,6
24,79,50,54,FALSE,742,6
24,80,50,56,TRUE,897,3
24,81,56,50,TRUE,658,6
24,82,54,50,TRUE,914,3
24,83,54,50,TRUE,588,6
24,84,50,52,FALSE,845,6
24,85,54,50,TRUE,675,6
24,86,54,50,FALSE,1258,2
24,87,56,50,TRUE,1086,1
24,88,50,56,FALSE,778,6
24,89,58,50,TRUE,802,6
24,90,58,50,TRUE,610,6
24,91,50,56,FALSE,1433,1
24,92,50,58,TRUE,1456,6
24,93,58,50,TRUE,658,6
24,94,50,56,TRUE,969,6
24,95,50,56,TRUE,875,6
24,96,50,54,FALSE,965,6
24,97,50,56,TRUE,2299,1
24,98,50,56,TRUE,1824,1
24,99,54,50,TRUE,951,3
24,100,54,50,TRUE,788,4
24,101,50,52,FALSE,794,1
24,102,54,50,TRUE,624,6
24,103,50,54,TRUE,1065,6
24,104,50,52,FALSE,909,6
24,105,54,50,TRUE,974,6
24,106,50,54,FALSE,801,6
24,107,56,50,TRUE,1395,1
24,108,50,56,TRUE,1048,2
24,109,50,54,FALSE,931,6
24,110,50,56,FALSE,843,3
24,111,50,58,TRUE,1006,6
24,112,58,50,TRUE,753,6
24,113,50,56,TRUE,930,3
24,114,50,56,FALSE,772,3
24,115,50,58,FALSE,728,6
24,116,60,50,TRUE,777,6
24,117,50,60,TRUE,934,1
24,118,58,50,TRUE,653,6
24,119,50,58,TRUE,1094,1
24,120,50,56,FALSE,696,3
25,1,50,70,TRUE,1625.36499998532,3
25,2,50,70,FALSE,1322.49000004958,4
25,3,50,72,TRUE,1661.20999993291,3
25,4,50,72,TRUE,1170.82499992102,5
25,5,70,50,TRUE,1311.51999998838,5
25,6,70,50,TRUE,1150.69499996025,5
25,7,50,68,TRUE,1322.74999993388,4
25,8,68,50,TRUE,1329.18999996036,5
25,9,66,50,TRUE,1301.67499999516,5
25,10,50,66,TRUE,1592.94500004034,5
25,11,64,50,TRUE,1739.96999999508,4
25,12,50,64,TRUE,1272.22500008065,4
25,13,62,50,TRUE,1130.11000002734,4
25,14,62,50,TRUE,1301.39999999665,4
25,15,60,50,TRUE,1157.20999997575,5
25,16,60,50,TRUE,1227.58000006434,4
25,17,50,58,TRUE,4231.81999998633,3
25,18,50,58,FALSE,2029.11499992479,3
25,19,50,60,TRUE,1137.41999992635,4
25,20,60,50,FALSE,1925.72499997914,4
25,21,50,62,FALSE,1346.57000005245,3
25,22,64,50,TRUE,1053.85499994736,4
25,23,64,50,TRUE,1547.36999992747,6
25,24,50,62,TRUE,1354.61000003852,6
25,25,50,62,TRUE,1186.43500003964,6
25,26,60,50,TRUE,1225.05999996793,4
25,27,50,60,TRUE,1278.11000007205,4
25,28,50,58,TRUE,1318.6299999943,5
25,29,50,58,TRUE,1166.79499996826,5
25,30,50,56,TRUE,1026.99499996379,5
25,31,50,56,TRUE,1003.32500005607,5
25,32,54,50,TRUE,1218.45000004396,4
25,33,54,50,TRUE,1378.44000000041,5
25,34,52,50,FALSE,1293.2799999835,4
25,35,54,50,TRUE,1249.09499997739,5
25,36,50,54,TRUE,1128.27500002459,5
25,37,52,50,TRUE,1107.75500000454,3
25,38,52,50,TRUE,1371.82500003837,4
25,39,50,52,TRUE,1025.35499993246,5
25,40,52,50,FALSE,1074.67500003986,5
25,41,50,54,TRUE,2033.12000003643,2
25,42,54,50,TRUE,1472.24499995355,4
25,43,52,50,FALSE,2395.95999999437,5
25,44,54,50,TRUE,1201.64500002284,4
25,45,54,50,TRUE,1888.18500004709,4
25,46,52,50,FALSE,1266.31500001531,5
25,47,54,50,TRUE,1351.47500003222,5
25,48,50,54,FALSE,1835.94499994069,4
25,49,50,56,TRUE,1044.22999999952,6
25,50,56,50,TRUE,1058.30500007141,6
25,51,54,50,TRUE,1042.17999998946,6
25,52,50,54,TRUE,1162.91999991518,4
25,53,50,52,TRUE,1598.29999995418,4
25,54,52,50,FALSE,1768.76999996603,4
25,55,54,50,TRUE,1231.16500000469,4
25,56,54,50,TRUE,1464.43499997258,3
25,57,52,50,FALSE,1102.56000002846,4
25,58,50,54,TRUE,1041.13999998663,5
25,59,50,54,TRUE,1022.93999993708,4
25,60,52,50,TRUE,1085.09499998763,4
25,61,52,50,FALSE,1074.00500006042,4
25,62,50,54,TRUE,1060.36000000313,5
25,63,54,50,TRUE,1058.48000000697,5
25,64,52,50,FALSE,1025.38999996614,5
25,65,54,50,TRUE,1027.98000001349,5
25,66,54,50,TRUE,1042.17000002973,5
25,67,52,50,FALSE,1185.11500000022,5
25,68,50,54,TRUE,1323.2250000583,5
25,69,50,54,TRUE,1371.26499996521,4
25,70,50,52,TRUE,1423.14999992959,5
25,71,52,50,TRUE,2454.99999995809,3
25,72,50,52,TRUE,1062.70500004757,5
25,73,52,50,TRUE,1136.21000002604,3
25,74,50,52,TRUE,911.825000075623,5
